accelerometer_X,accelerometer_Y,accelerometer_Z,name_id,file_id
1.7573439999999998,-5.875371,-3.878607,2,0
2.461239,12.98615,1.762132,2,0
22.682667,22.922087,-1.73819,2,0
11.87524,4.611233,-8.389283,2,0
-5.295974,4.783615,-1.273715,2,0
1.221043,-7.733271,-7.101202000000001,2,0
11.415554,28.538884999999997,9.227253,2,0
15.102624,23.15672,12.014104,2,0
2.394202,-5.27682,1.115698,2,0
0.871489,27.854143,-4.49631,2,0
1.192313,14.073117000000002,-9.667787,2,0
10.529699,-8.437167,-0.215478,2,0
5.688624,13.096283,5.185841,2,0
27.087997,29.836542,7.393294999999999,2,0
0.871489,-4.707,-6.493075,2,0
-2.700659,5.803545,3.375825,2,0
6.655881,0.440533,-2.0302830000000003,2,0
23.491907,22.443247,7.752425,2,0
-3.2561139999999997,11.195287,-2.212242,2,0
24.83266,21.820757,-0.881066,2,0
13.833697,3.979163,-4.237737,2,0
-1.426944,6.493075,-3.122039,2,0
11.45865,-9.452309,0.8044520000000001,2,0
4.927267,23.295582,9.011775,2,0
1.25935,20.853497,1.316811,2,0
3.5529949999999997,-3.026271,-2.5953150000000003,2,0
0.493206,11.597513,-1.163582,2,0
16.122555,18.92377,-3.438074,2,0
7.163452,4.156333999999999,-5.5545480000000005,2,0
6.019023000000001,10.955867,1.819593,2,0
2.0781669999999997,10.443508,3.4811690000000004,2,1
22.7928,29.338547,14.987702,2,1
0.8379709999999999,3.892972,-8.231264999999999,2,1
3.615245,16.366761999999998,10.888829,2,1
7.398083,12.933477,12.990938,2,1
3.136404,-4.673482,-7.963114,2,1
-2.82037,6.373365,-3.3375169999999996,2,1
7.431602000000001,-3.873818,2.882619,2,1
15.50485,8.030153,5.717354,2,1
-0.387861,10.941502,4.266468,2,1
2.035071,-11.109096,-4.94642,2,1
14.9063,11.286267,7.28795,2,1
-2.236184,6.612785000000001,1.345541,2,1
10.486604,-4.333505000000001,0.632069,2,1
1.374272,2.710236,-1.541866,2,1
23.879768,20.226215,-13.977348999999998,2,1
7.177817,-4.82671,-7.479486,2,1
-2.2313959999999997,6.799533,1.053449,2,1
5.54976,0.684742,-2.8682540000000003,2,1
11.329363,16.184803,5.166688,2,1
-7.656657000000001,4.548983,-2.006341,2,1
4.88896,-8.149861999999999,-4.529829,2,1
2.121263,15.116989000000002,11.774684,2,1
15.533581,20.891804,6.042965000000001,2,1
5.597644,-2.293645,-1.211466,2,1
5.655105000000001,18.11453,-0.493206,2,1
3.5194769999999997,16.371551999999998,11.314998,2,1
3.610456,-4.879383,-8.317456,2,1
-1.886631,7.225700999999999,4.185065,2,1
0.799663,7.594408,-2.542642,2,1
5.932832,-1.594538,0.8236049999999999,2,2
-3.782838,7.872135000000001,-3.77805,2,2
5.932832,0.062249,-7.541735000000001,2,2
32.082302,21.859062,-22.026655,2,2
3.035848,13.733141,-8.820239,2,2
2.557007,-6.095637,-5.549759,2,2
3.093309,9.303867,-2.834735,2,2
2.140417,15.169662,-4.314351,2,2
8.384495,11.018116,6.33027,2,2
-5.2241480000000005,6.325481,-0.914585,2,2
15.342045,26.877308000000003,15.80652,2,2
8.303091,5.746084,-2.87783,2,2
-3.845088,5.1906300000000005,-12.837709,2,2
7.350199000000001,-10.04607,-0.976834,2,2
-2.695871,10.237606,2.614468,2,2
24.392126,21.064186,10.275913,2,2
11.81778,8.705316999999999,-2.0494369999999997,2,2
-3.3854010000000003,6.172251999999999,-3.462016,2,2
4.606444000000001,-11.563994,-2.552219,2,2
6.540959,26.379314,10.577583,2,2
5.233725,22.49113,5.516241,2,2
3.691859,-4.247314,-3.936067,2,2
14.791378,26.848577,31.115046000000003,2,2
-2.8155810000000003,13.666103,6.459556,2,2
4.0509889999999995,-9.299079,-8.269572,2,2
3.892972,11.405977,-4.548983,2,2
25.723303,2.992752,-6.473921,2,2
38.19709,13.144167,-7.345411,2,2
19.009962,21.045033,1.776498,2,2
2.442086,-6.722917999999999,-2.3606830000000003,2,2
18.195932,34.648888,-3.691859,2,3
2.13084,-12.770672,1.7573439999999998,2,3
5.808333999999999,10.443508,-10.433931,2,3
18.6221,29.314606,5.822699,2,3
0.636858,-9.097966,-4.113238,2,3
-0.694318,10.175357,0.5171479999999999,2,3
26.853367,37.04788,0.713472,2,3
2.221819,-7.268796000000001,-1.177947,2,3
-1.292869,5.588067,1.297657,2,3
-8.729258999999999,13.077129,-0.565032,2,3
9.251195,-8.312667999999999,-3.409343,2,3
21.4712,28.045679999999997,-5.243302,2,3
-4.314351,8.772355000000001,-5.0374,2,3
0.8906430000000001,-14.824897,1.278504,2,3
18.966866,35.142094,14.920665,2,3
-6.5122279999999995,9.68694,-2.327164,2,3
-0.167594,-16.026787,-3.05979,2,3
15.365987,27.56205,4.060566000000001,2,3
-6.301539,7.240066000000001,-3.122039,2,3
3.543419,26.139894,-6.995857000000001,2,3
4.477157,-24.899698,5.822699,2,3
9.586384,10.43872,-3.591303,2,3
-1.154005,19.393034,-3.926491,2,3
2.092532,-15.413871,-5.712565000000001,2,3
3.945645,10.553641,3.897761,2,3
13.263878,27.758375,9.165004,2,3
3.026271,-5.406107,-2.126051,2,3
27.092787,26.906038,-0.651223,2,3
-4.592078,5.846641,-3.040636,2,3
6.521806,-17.195156,2.949657,2,3
-3.845088,5.1906300000000005,-12.837709,2,4
7.350199000000001,-10.04607,-0.976834,2,4
-2.695871,10.237606,2.614468,2,4
24.392126,21.064186,10.275913,2,4
11.81778,8.705316999999999,-2.0494369999999997,2,4
-3.3854010000000003,6.172251999999999,-3.462016,2,4
4.606444000000001,-11.563994,-2.552219,2,4
6.540959,26.379314,10.577583,2,4
5.233725,22.49113,5.516241,2,4
3.691859,-4.247314,-3.936067,2,4
14.791378,26.848577,31.115046000000003,2,4
-2.8155810000000003,13.666103,6.459556,2,4
4.0509889999999995,-9.299079,-8.269572,2,4
3.892972,11.405977,-4.548983,2,4
25.723303,2.992752,-6.473921,2,4
38.19709,13.144167,-7.345411,2,4
19.009962,21.045033,1.776498,2,4
2.442086,-6.722917999999999,-2.3606830000000003,2,4
-3.08852,6.938397,3.4189199999999995,2,4
-1.4987700000000002,15.509639000000002,4.611233,2,4
11.621455,0.110133,-3.763685,2,4
-7.522581,-0.612916,13.575124,2,4
18.971655,19.033903,1.345541,2,4
16.907852,14.135366,-3.624821,2,4
-2.264915,8.571242,-1.13964,2,4
7.168239999999999,-12.186486,-1.968034,2,4
12.559982000000002,30.794222,15.931018,2,4
7.867347,22.950817,6.842629,2,4
4.572925,-7.843405000000001,-2.2505490000000004,2,4
27.59557,31.838095000000003,15.725117,2,4
-0.234632,6.574478,5.525818,2,5
5.521029,9.481039,-6.526593,2,5
14.049175,15.643714,-6.287173,2,5
1.6998830000000005,8.729258999999999,8.657434,2,5
14.484921,20.202274,13.79539,2,5
4.0509889999999995,2.63841,1.877054,2,5
-0.770933,9.083601,2.896984,2,5
5.913678,10.060435,-2.705448,2,5
9.184157,13.517663,1.987187,2,5
-3.533841,7.374141000000001,0.153229,2,5
10.390836,-4.845864,-1.479617,2,5
2.585738,12.076353,9.313444,2,5
5.7269309999999995,21.935677,7.426814,2,5
4.261679,1.187524,1.316811,2,5
9.864111,25.167849,16.050728,2,5
-2.39899,9.433155,1.101333,2,5
8.327033,-6.047753,0.588974,2,5
4.185065,12.23437,8.283938000000001,2,5
17.803283999999998,23.678656,12.698846,2,5
7.249642999999999,6.603208,-0.59855,2,5
-4.0845080000000005,4.180276999999999,1.144428,2,5
4.299987000000001,-3.519476,0.612916,2,5
9.595961,-0.545878,-0.440533,2,5
0.3304,8.719683,1.891419,2,5
4.812346,-1.321599,-2.202665,2,5
13.445837,15.337256,8.394072,2,5
0.751779,9.907207,1.345541,2,5
2.317587,-9.217676,-2.245761,2,5
2.0781669999999997,10.443508,3.4811690000000004,2,5
22.7928,29.338547,14.987702,2,5
10.357317,6.655881,-0.8906430000000001,2,6
2.762909,-5.889736,-3.749319999999999,2,6
-0.134075,18.210299,-3.3997660000000005,2,6
-1.163582,7.326257000000001,6.698977,2,6
-14.144943,6.6894,-3.150769,2,6
-22.821531,16.936583,-4.10845,2,6
2.011129,10.682928,-2.676717,2,6
-5.257667,-6.50744,-7.920019,2,6
-3.830723,8.087613000000001,1.61848,2,6
-39.188293,17.329231,-3.260903,2,6
-9.576807,7.354988,-2.94008,2,6
3.055001,5.228937,1.824382,2,6
-14.398729,20.66196,0.483629,2,6
-0.4548979999999999,-3.078943,3.1795,2,6
4.074930999999999,7.067683000000001,0.057461,2,6
-7.144297999999999,1.010353,2.82037,2,6
-13.88637,25.19179,9.337387,2,6
1.326388,10.395624,3.77805,2,6
-12.310986,-10.754754,-1.8579,2,6
2.126051,12.378023,2.413355,2,6
-22.807165,22.155943,6.564901,2,6
-8.513782,-5.300762000000001,-4.295198,2,6
-11.664551,22.122423,9.763555,2,6
-4.941632,16.002844,-6.545747,2,6
-5.7604489999999995,-1.527501,-3.20823,2,6
2.566584,7.326257000000001,0.110133,2,6
-7.034164,21.514296,-12.105083,2,6
-4.850651999999999,16.79772,-1.814805,2,6
5.080496,5.803545,0.378284,2,6
-24.722527,25.301924,1.92015,2,6
3.945645,10.553641,3.897761,2,7
13.263878,27.758375,9.165004,2,7
3.026271,-5.406107,-2.126051,2,7
27.092787,26.906038,-0.651223,2,7
-4.592078,5.846641,-3.040636,2,7
6.521806,-17.195156,2.949657,2,7
4.544194999999999,29.999348,1.824382,2,7
-1.661576,14.633361,-0.833182,2,7
2.4660279999999997,-19.096153,-7.939172,2,7
-8.001422,26.494235999999997,14.499285999999998,2,7
-6.607996000000001,10.702082,-2.87783,2,7
9.643845,-16.127342000000002,-2.676717,2,7
5.822699,3.72059,-8.298302,2,7
-8.944737,6.545748000000001,7.728483,2,7
28.88365,14.12579,5.712566000000001,2,7
19.541473,17.851167999999998,-3.955221,2,7
-6.081272,6.315904,-0.033519,2,7
-5.559336,-17.808075,0.526724,2,7
14.077906,33.8588,4.328717,2,7
-6.981492,10.936713,9.030929,2,7
28.04089,39.08774,-13.388376,2,7
4.9176910000000005,1.35033,-4.850651999999999,2,7
-9.308656,6.229712999999999,5.779603,2,7
11.429919,23.084892,-0.7661439999999999,2,7
5.473145,11.659762,-13.330915,2,7
-5.564124,3.725378,-2.6910830000000003,2,7
6.224925,-8.954314,-2.1547810000000003,2,7
25.94357,25.239674,-1.039083,2,7
-2.806004,8.2169,-0.790087,2,7
2.499547,-14.221559,-2.432509,2,7
-4.314351,8.772355000000001,-5.0374,2,8
0.8906430000000001,-14.824897,1.278504,2,8
18.966866,35.142094,14.920665,2,8
-6.5122279999999995,9.68694,-2.327164,2,8
-0.167594,-16.026787,-3.05979,2,8
15.365987,27.56205,4.060566000000001,2,8
-6.301539,7.240066000000001,-3.122039,2,8
3.543419,26.139894,-6.995857000000001,2,8
4.477157,-24.899698,5.822699,2,8
9.586384,10.43872,-3.591303,2,8
-1.154005,19.393034,-3.926491,2,8
2.092532,-15.413871,-5.712565000000001,2,8
3.945645,10.553641,3.897761,2,8
13.263878,27.758375,9.165004,2,8
3.026271,-5.406107,-2.126051,2,8
27.092787,26.906038,-0.651223,2,8
-4.592078,5.846641,-3.040636,2,8
6.521806,-17.195156,2.949657,2,8
4.544194999999999,29.999348,1.824382,2,8
-1.661576,14.633361,-0.833182,2,8
2.4660279999999997,-19.096153,-7.939172,2,8
-8.001422,26.494235999999997,14.499285999999998,2,8
-6.607996000000001,10.702082,-2.87783,2,8
9.643845,-16.127342000000002,-2.676717,2,8
5.822699,3.72059,-8.298302,2,8
-8.944737,6.545748000000001,7.728483,2,8
28.88365,14.12579,5.712566000000001,2,8
19.541473,17.851167999999998,-3.955221,2,8
-6.081272,6.315904,-0.033519,2,8
-5.559336,-17.808075,0.526724,2,8
4.831499,-5.856217,-6.804321000000001,2,9
0.435745,8.044518,0.244209,2,9
3.787627,11.03727,-1.1300629999999998,2,9
14.283808,12.248735,-0.416591,2,9
-5.157109999999999,4.534618,-2.935291,2,9
2.446874,-11.03727,-1.862689,2,9
5.353435,1.407791,-6.924030999999999,2,9
-5.0517650000000005,7.603985000000001,1.292869,2,9
5.889736,-5.171476,3.979163,2,9
10.13705,17.808075,13.790602,2,9
-1.302446,8.063671000000001,10.223241,2,9
4.309563,5.899312999999999,7.967903,2,9
-12.861651,7.943961,-2.892196,2,9
-3.864241,19.081787,0.033519,2,9
-10.424355,13.144167,-13.196839,2,9
-9.548077,20.652384,-9.097966,2,9
-10.271125,10.821792,-2.351106,2,9
-0.225055,9.907207,-2.944868,2,9
-14.709975,-10.500969,7.675811,2,9
-9.476251,22.203827,-3.2800559999999996,2,9
-2.413355,16.955735999999998,2.13084,2,9
-0.756568,-4.19943,1.580173,2,9
1.273715,8.111555000000001,2.681506,2,9
4.88896,9.619903,0.6033390000000001,2,9
-10.922348,-8.485051,2.667141,2,9
-0.162806,10.884041,1.149217,2,9
-27.207708,20.60929,6.368576999999999,2,9
-6.378153,7.173029,-17.673998,2,9
10.357317,6.655881,-0.8906430000000001,2,9
2.762909,-5.889736,-3.749319999999999,2,9
-0.991199,4.668694,4.544194999999999,2,10
-4.548983,5.722142,-8.2169,2,10
6.962339,-8.336611,1.94888,2,10
-9.605537,9.471462,10.16578,2,10
11.999739,25.737667,19.64203,2,10
4.242526,0.857124,-2.791639,2,10
-4.113238,4.898537,0.35913,2,10
-4.055777,-9.02614,-0.78051,2,10
19.191921,25.086445,19.139248,2,10
-7.829039,3.495535,6.766014,2,10
8.901641999999999,6.469133,-1.599327,2,10
17.401058,21.035456,5.865794,2,10
-5.6982,9.725247,-4.582502,2,10
5.032612,-12.713211,-2.322375,2,10
2.5953150000000003,10.697293,9.011775,2,10
15.849615,29.410373999999997,13.690045,2,10
4.13718,2.293645,-10.7356,2,10
3.4189199999999995,24.013844,0.90022,2,10
-0.976834,20.09214,14.877569,2,10
4.13718,-1.82917,-6.315904,2,10
-4.501099,6.828264,2.839523,2,10
14.551958,6.1578870000000006,-1.580173,2,10
28.309040000000003,28.730421000000003,9.313444,2,10
-4.209007,15.466543,-2.063802,2,10
8.360553,-11.123461,-1.939303,2,10
9.064447,13.024457,-3.160346,2,10
-4.7453080000000005,6.023812,-6.095637,2,10
9.050082000000002,-14.5759,3.217807,2,10
7.283162,19.661184,0.612916,2,10
12.277467,22.783224,-1.2162540000000002,2,10
24.689009,21.74414,14.03481,2,11
6.311116,8.949525999999999,2.829947,2,11
-3.112462,5.798757,1.297657,2,11
7.704541000000001,-5.252878,-1.661576,2,11
5.870583,17.764977,1.6998830000000005,2,11
7.603985000000001,16.424223,5.434838,2,11
1.493982,-4.553771,-3.610456,2,11
12.852075,14.00608,2.509123,2,11
1.024718,9.773131,-4.692635,2,11
1.355118,-5.535394,-8.566454,2,11
1.968034,5.12838,4.156333999999999,2,11
13.168109,12.995727,0.440533,2,11
7.881711999999999,6.828264,1.192313,2,11
0.1723829999999999,9.112331,4.113238,2,11
6.086061,-3.3854010000000003,-5.0421879999999994,2,11
4.4723690000000005,14.887146,13.464991,2,11
10.477027,20.652384,9.332599,2,11
4.276045,2.4660279999999997,-1.795651,2,11
0.1292869999999999,6.56969,2.5617959999999997,2,11
8.173805,13.79539,8.125921,2,11
4.13718,-4.975151,-2.03986,2,11
0.976834,7.694965,2.073379,2,11
5.3678,8.465898,-1.685518,2,11
6.454768,10.7356,4.912902,2,11
-5.712565000000001,6.732496,-3.160346,2,11
5.66947,-4.58729,0.909797,2,11
4.76925,17.870321,10.395624,2,11
15.303738,22.42888,0.866701,2,11
2.298434,-2.5187,4.726155,2,11
-1.091756,15.840038,2.624045,2,11
-2.944868,5.813122,-0.378284,2,12
2.844312,-2.475604,-3.529053,2,12
16.050728,15.571888,1.024718,2,12
-3.854665,5.4539919999999995,-6.038176,2,12
2.456451,-4.563348,-9.442732,2,12
26.9635,19.85272,21.38022,2,12
-6.660669,5.837064,0.579397,2,12
6.517017,-13.441049,0.42138,2,12
1.771709,15.059528,4.31914,2,12
12.751518,25.503036,15.231912,2,12
4.074930999999999,-1.465251,-5.200206,2,12
6.607997,11.018116,4.74052,2,12
11.980585,26.781540000000003,14.944607,2,12
13.536817,10.070012,10.500969,2,12
-4.88896,4.443639,-4.82671,2,12
27.394453,23.894133,9.097966,2,12
5.473145,-2.2601259999999996,1.25935,2,12
-4.903325,4.553772,5.324705000000001,2,12
16.218323,7.996633999999999,5.1906300000000005,2,12
26.997019,25.929205,12.899959,2,12
-2.791639,9.710882000000002,-0.8619129999999999,2,12
9.294291,-9.399636,-3.2896330000000003,2,12
-0.186748,5.027824,4.252103,2,12
19.263746,27.05448,10.275913,2,12
2.5617959999999997,2.035071,-1.221043,2,12
-4.697424,21.246145,14.226347,2,12
7.97748,23.779213,4.017469999999999,2,12
-0.555455,-2.82037,-1.73819,2,12
-1.6807299999999998,2.829947,0.746991,2,12
21.56218,1.106121,0.3926489999999999,2,12
1.551443,6.59842,5.358224,2,13
18.26776,18.598158,-1.671153,2,13
12.26789,9.088389,3.222596,2,13
-3.351882,5.363012,1.034295,2,13
8.844180999999999,-8.695741,1.776498,2,13
0.177171,-1.623269,-3.945644,2,13
-1.6998830000000005,8.686164,2.557007,2,13
2.236184,3.548207,-4.989516,2,13
7.881711999999999,7.043741000000001,17.209522,2,13
-3.2800559999999996,10.34774,-0.4979939999999999,2,13
8.2169,-7.278372999999999,0.833182,2,13
3.011906,13.948619,3.4428620000000003,2,13
-2.944868,5.813122,-0.378284,2,13
2.844312,-2.475604,-3.529053,2,13
16.050728,15.571888,1.024718,2,13
-3.854665,5.4539919999999995,-6.038176,2,13
2.456451,-4.563348,-9.442732,2,13
26.9635,19.85272,21.38022,2,13
-6.660669,5.837064,0.579397,2,13
6.517017,-13.441049,0.42138,2,13
1.771709,15.059528,4.31914,2,13
12.751518,25.503036,15.231912,2,13
4.074930999999999,-1.465251,-5.200206,2,13
6.607997,11.018116,4.74052,2,13
11.980585,26.781540000000003,14.944607,2,13
13.536817,10.070012,10.500969,2,13
-4.88896,4.443639,-4.82671,2,13
27.394453,23.894133,9.097966,2,13
5.473145,-2.2601259999999996,1.25935,2,13
-4.903325,4.553772,5.324705000000001,2,13
3.825935,15.5671,4.309563,2,14
12.722788,13.843274,-4.314351,2,14
22.4624,13.967772,3.677494,2,14
-2.087744,9.059659,-2.925714,2,14
8.341399000000001,-9.792285,-1.843535,2,14
24.679432,25.656265,14.432248,2,14
7.340623,16.998832999999998,1.776498,2,14
1.94888,-4.721366000000001,-3.586514,2,14
5.042189,7.125145,2.8155810000000003,2,14
16.069881,13.52724,0.742203,2,14
11.33894,12.47858,7.666233999999999,2,14
-4.232949,5.530606,-0.679953,2,14
12.330139,17.223886,12.890382,2,14
7.441178999999999,8.073248,7.383717999999999,2,14
-1.187524,7.465121000000001,7.393294999999999,2,14
2.839523,-11.434708,-5.84664,2,14
-7.043741000000001,5.679047,6.23929,2,14
21.20305,27.878084,-4.936844000000001,2,14
4.903325,7.824250999999999,-3.720589,2,14
-2.006341,8.566454,5.765238,2,14
20.714634,24.914062,-8.293514,2,14
8.269573,11.544841,-0.105345,2,14
-1.924938,8.082825,-2.5378540000000003,2,14
4.577714,-5.176264,-3.3279400000000003,2,14
0.306458,8.432379,1.426944,2,14
11.343728,16.060305,-4.434061,2,14
18.339584,12.315774,-6.584053999999999,2,14
5.401319,9.270349,-2.585738,2,14
24.689009,21.74414,14.03481,2,14
6.311116,8.949525999999999,2.829947,2,14
-5.6982,9.725247,-4.582502,2,15
5.032612,-12.713211,-2.322375,2,15
2.5953150000000003,10.697293,9.011775,2,15
15.849615,29.410373999999997,13.690045,2,15
4.13718,2.293645,-10.7356,2,15
3.4189199999999995,24.013844,0.90022,2,15
-0.976834,20.09214,14.877569,2,15
4.13718,-1.82917,-6.315904,2,15
-4.501099,6.828264,2.839523,2,15
14.551958,6.1578870000000006,-1.580173,2,15
28.309040000000003,28.730421000000003,9.313444,2,15
-4.209007,15.466543,-2.063802,2,15
8.360553,-11.123461,-1.939303,2,15
9.064447,13.024457,-3.160346,2,15
-4.7453080000000005,6.023812,-6.095637,2,15
9.050082000000002,-14.5759,3.217807,2,15
7.283162,19.661184,0.612916,2,15
12.277467,22.783224,-1.2162540000000002,2,15
5.21936,-0.110133,-2.657564,2,15
-7.096413,5.6982,2.154782,2,15
3.86903,-4.012682,-3.667917,2,15
14.499285999999998,34.596214,21.997925,2,15
-4.644751,6.234502,1.426944,2,15
8.643068,2.959233,2.9257150000000003,2,15
25.694572,31.656136,18.124107,2,15
-2.542642,15.591042000000002,4.855441000000001,2,15
1.489194,-6.263232,-4.299986,2,15
-1.565808,3.979163,0.92895,2,15
7.599196000000001,7.101202000000001,2.0781669999999997,2,15
9.045294,10.01734,-1.867477,2,15
4.692636,-2.422932,-1.316811,2,16
-1.886631,6.095638,1.340753,2,16
7.105991,-3.5960910000000004,-3.677494,2,16
1.058237,-9.840169,-2.782062,2,16
1.024718,9.346964,4.865018,2,16
10.366894,4.592079,-1.733402,2,16
19.733011,25.43121,19.378668,2,16
0.397437,12.756307,4.797981,2,16
3.2513259999999997,-8.403648,-7.532158,2,16
3.730166000000001,12.26789,4.486733999999999,2,16
6.684612,7.809886,-4.539406,2,16
8.753200999999999,-9.65821,0.871489,2,16
4.3574470000000005,8.858546,2.217031,2,16
26.953922,22.419304,8.968679,2,16
12.617443,-3.136404,3.260903,2,16
-3.2513259999999997,8.959103,-3.902549,2,16
8.576031,-4.13718,-2.341529,2,16
22.419304,22.720974,17.745823,2,16
2.566584,13.077129,10.127473,2,16
5.1235919999999995,-0.895431,1.73819,2,16
26.877308000000003,18.44493,19.378668,2,16
-1.628057,11.027693,4.659117,2,16
5.688624,-11.180922,0.272939,2,16
1.872266,8.475474,4.10845,2,16
14.06354,13.479356,-10.821792,2,16
20.997149,16.184803,-0.857124,2,16
-2.245761,8.125921,-2.102109,2,16
31.43108,21.447258,-2.322375,2,16
14.580688,-2.1787229999999997,6.722919,2,16
-0.6272810000000001,6.042965000000001,5.6982,2,16
2.298434,-2.5187,4.726155,2,17
-1.091756,15.840038,2.624045,2,17
10.726024,20.51352,12.401965,2,17
4.64954,2.389413,0.512359,2,17
-1.2162540000000002,5.147533999999999,1.369483,2,17
4.807557,-2.681506,-8.269572,2,17
7.460333,26.364948,-1.364695,2,17
2.264915,16.352398,7.105991,2,17
6.924032,-4.9512089999999995,-0.205901,2,17
11.382035,18.02355,3.064578,2,17
-4.156333999999999,8.394072,2.207454,2,17
8.796297000000001,-3.438074,3.112462,2,17
-0.493206,8.595184,6.818687,2,17
14.614207,16.232687,13.637373,2,17
3.672706,-0.474052,-3.141193,2,17
-1.790863,5.741296,6.675035,2,17
7.972692,3.342306,-7.790732000000001,2,17
19.67555,25.953146,2.944868,2,17
9.931149,15.907076000000002,-10.472239,2,17
2.351106,-6.7851669999999995,-0.636858,2,17
9.629479,13.120225,3.605668,2,17
-0.263362,7.661446000000001,-4.0845080000000005,2,17
5.343858,-6.1818290000000005,-0.593762,2,17
3.620033,17.314869,3.730166000000001,2,17
10.94629,20.839132,6.359,2,17
3.964798000000001,-0.253785,-0.0909799999999999,2,17
-0.234632,6.574478,5.525818,2,17
5.521029,9.481039,-6.526593,2,17
14.049175,15.643714,-6.287173,2,17
1.6998830000000005,8.729258999999999,8.657434,2,17
37.622486,35.57784,4.07972,2,18
-5.281609,12.076353,-2.633622,2,18
12.703634,-13.120225,-1.225831,2,18
0.727837,7.891289,4.625598,2,18
21.815966,39.18351,-10.25676,2,18
4.046201,1.82917,-8.695741,2,18
-2.202665,3.787627,-0.885855,2,18
6.588842999999999,25.507826,9.825804,2,18
3.193865,-7.283161,-0.512359,2,18
-2.015918,5.635951,0.033519,2,18
9.179369,5.942409,-6.866569999999999,2,18
18.574217,17.554285,8.432379,2,18
-3.5146879999999996,9.615114,-3.711012,2,18
11.042058,-13.570335,-0.881066,2,18
3.888184,9.581595,2.7389669999999997,2,18
-2.365471,5.477933999999999,-2.695871,2,18
7.987057000000001,-10.371682,2.853889,2,18
6.607997,11.540052,7.235278,2,18
15.873557,24.281994,8.504205,2,18
8.542512,0.086191,-2.2505490000000004,2,18
-1.04866,5.808333999999999,-0.081403,2,18
-3.189077,-6.981492,-4.352658,2,18
1.7573439999999998,-5.875371,-3.878607,2,18
2.461239,12.98615,1.762132,2,18
22.682667,22.922087,-1.73819,2,18
11.87524,4.611233,-8.389283,2,18
-5.295974,4.783615,-1.273715,2,18
1.221043,-7.733271,-7.101202000000001,2,18
11.415554,28.538884999999997,9.227253,2,18
15.102624,23.15672,12.014104,2,18
14.06354,13.479356,-10.821792,2,19
20.997149,16.184803,-0.857124,2,19
-2.245761,8.125921,-2.102109,2,19
31.43108,21.447258,-2.322375,2,19
14.580688,-2.1787229999999997,6.722919,2,19
-0.6272810000000001,6.042965000000001,5.6982,2,19
2.394202,-5.190629,-7.991845,2,19
22.725763,29.92752,18.722658,2,19
5.358224,14.168885,3.873819,2,19
1.369483,-10.036493,3.20823,2,19
2.059013,9.835381,-1.781286,2,19
9.888053,-0.770933,-7.441178999999999,2,19
4.994305000000001,-13.196839,-3.936067,2,19
9.097966,13.723564,3.65834,2,19
32.95858,24.109612,15.011644,2,19
2.446874,-4.7453080000000005,-4.630386,2,19
-0.943315,8.810661999999999,2.5953150000000003,2,19
12.287044,-1.307234,0.775721,2,19
30.420727000000003,22.663513,18.7466,2,19
0.833182,11.463438,-1.4987700000000002,2,19
5.60722,3.308787,-9.581595,2,19
17.444153,14.030022,1.173159,2,19
-0.833182,11.161768,3.308787,2,19
9.442732,-14.494497,1.240197,2,19
7.187394,15.739482,3.969586,2,19
26.3027,26.369738,14.350845,2,19
5.0086699999999995,1.23062,-1.5466540000000002,2,19
-0.555455,5.645528,-1.900996,2,19
17.583017,20.54225,1.278504,2,19
2.164359,-8.537724,-2.03986,2,19
-1.632845,6.833052,-3.773262,2,20
0.325611,-12.009315,-4.204218,2,20
4.29041,23.008278,14.188039000000002,2,20
-3.222595,21.073763,13.757082999999998,2,20
6.258444,-6.220136,-3.936067,2,20
-3.610456,12.282255,10.591949,2,20
2.331953,15.543157999999998,1.958457,2,20
10.012551,-13.824121,-2.585738,2,20
2.298434,9.768343,7.771578999999999,2,20
34.830845000000004,30.588322,20.231005,2,20
5.243302,0.201113,-5.765238,2,20
-3.394978,4.716578,-2.097321,2,20
-1.9919759999999995,-8.853758000000001,-10.505757,2,20
-2.255338,20.786457,36.521152,2,20
-2.011129,5.702989,-2.39899,2,20
-4.395754,-5.880159,13.64695,2,20
16.816874,19.177555,8.772355000000001,2,20
-7.704541000000001,9.088389,-3.845088,2,20
13.953407,-12.813767,-4.003105000000001,2,20
1.13964,15.035586,13.249513,2,20
-8.63828,8.09719,21.241358,2,20
8.772355000000001,0.909797,-3.4955339999999997,2,20
24.320301,28.735209,24.641125,2,20
-1.225831,12.354081,-1.522712,2,20
14.03481,-13.833697,-9.212888,2,20
-0.1005559999999999,8.427589999999999,4.127604,2,20
15.404294,16.414645999999998,16.189592,2,20
9.437943,3.3854010000000003,2.240973,2,20
-1.144428,7.455544000000001,-4.256891,2,20
13.962984,-12.042834,-0.732626,2,20
-1.9919759999999995,-8.853758000000001,-10.505757,2,21
-2.255338,20.786457,36.521152,2,21
-2.011129,5.702989,-2.39899,2,21
-4.395754,-5.880159,13.64695,2,21
16.816874,19.177555,8.772355000000001,2,21
-7.704541000000001,9.088389,-3.845088,2,21
13.953407,-12.813767,-4.003105000000001,2,21
1.13964,15.035586,13.249513,2,21
-8.63828,8.09719,21.241358,2,21
8.772355000000001,0.909797,-3.4955339999999997,2,21
24.320301,28.735209,24.641125,2,21
-1.225831,12.354081,-1.522712,2,21
14.03481,-13.833697,-9.212888,2,21
-0.1005559999999999,8.427589999999999,4.127604,2,21
15.404294,16.414645999999998,16.189592,2,21
9.437943,3.3854010000000003,2.240973,2,21
-1.144428,7.455544000000001,-4.256891,2,21
13.962984,-12.042834,-0.732626,2,21
0.474052,27.207708,14.551958,2,21
-1.25935,8.231264999999999,0.833182,2,21
15.188815,8.633492,2.628834,2,21
17.769766,18.555063,5.262455999999999,2,21
-6.291962,6.105214,-9.14585,2,21
9.212888,-12.449849,-2.5953150000000003,2,21
9.232041,13.651738,-9.816227,2,21
26.00103,34.261024,-1.403002,2,21
6.26802,-0.062249,12.162544,2,21
6.813898,16.251839999999998,-36.67438,2,21
-5.7700260000000005,10.314221,-1.73819,2,21
8.585608,-8.427589999999999,-2.7724849999999996,2,21
17.583017,20.54225,1.278504,2,22
2.164359,-8.537724,-2.03986,2,22
3.203442,9.385271,-4.089296,2,22
4.678271,-2.140416,-3.145981,2,22
24.368187,17.391481,10.065224,2,22
-0.301669,10.874464,-3.744531,2,22
1.2545620000000002,-13.862428,-1.527501,2,22
10.979809,15.485697,3.15077,2,22
-2.197877,7.532159,-0.004788,2,22
5.252879,-12.449849,-5.377377,2,22
11.200075,17.922995,7.685388,2,22
16.361975,19.967642,8.303091,2,22
5.291186,-4.041412,-2.834735,2,22
-0.153229,7.805097999999999,2.461239,2,22
17.204732999999997,4.88896,1.6519990000000002,2,22
25.426422,10.505757,7.04853,2,22
4.31914,9.811439,3.3614589999999995,2,22
35.443764,21.973984,8.978256,2,22
7.345411,1.11091,-3.117251,2,22
-3.318364,7.125145,1.493982,2,22
2.164359,-10.754754,-3.643975,2,22
19.953278,25.58444,9.14585,2,22
8.762777999999999,18.885464,6.277597,2,22
2.30801,-8.145074000000001,-3.117251,2,22
25.345018,24.550144,18.962078,2,22
8.298303,17.583017,-3.696647,2,22
3.62961,-9.500193,-0.5841850000000001,2,22
-2.509123,4.189853,5.928044,2,22
12.717999,6.9671270000000005,9.337387,2,22
11.621455,5.070919,-1.000776,2,22
1.288081,9.859323,0.54109,2,23
24.569298,29.611486,-7.85777,2,23
10.208876,6.742072,-4.386177,2,23
-2.576161,4.960786,-13.43626,2,23
5.645528,-13.273454999999998,-3.1986529999999997,2,23
9.414001,29.214048,8.935161,2,23
-2.873042,7.005433999999999,-2.422932,2,23
14.302960999999998,14.020445,-2.073379,2,23
13.488933,14.662091,-24.339454999999997,2,23
-11.980585,5.659893,-2.762909,2,23
18.334797,-14.111424,0.6081270000000001,2,23
0.895431,13.077129,6.924032,2,23
9.002198,27.672184,-1.968034,2,23
1.369483,-9.725247,-3.471592,2,23
16.802507000000002,29.3577,12.459426,2,23
-7.766789999999999,15.916653,0.081403,2,23
5.0661309999999995,-5.822698,-4.88896,2,23
-4.218583,11.645397,9.964667,2,23
19.771318,27.56205,-3.165135,2,23
14.326903,12.349293,-4.716577,2,23
-8.456321,1.1683709999999998,-2.202665,2,23
-8.293514,-9.955091,-0.71826,2,23
10.67814,28.414385,1.599327,2,23
-3.931279,9.002198,4.165911,2,23
-6.229712999999999,13.350069,2.9257150000000003,2,23
7.824250999999999,3.165135,-14.211981,2,23
-5.530606,6.354212,-6.670246000000001,2,23
11.377247,-12.947843,-0.287304,2,23
37.622486,35.57784,4.07972,2,23
-5.281609,12.076353,-2.633622,2,23
6.052542,20.427328,-2.949656,2,24
9.002198,-1.192312,-0.292093,2,24
18.248606,15.902287,-1.623269,2,24
12.957419,20.494366,11.688493,2,24
1.249773,-9.998186,0.368707,2,24
-2.097321,4.3813889999999995,0.5841850000000001,2,24
3.366248,-11.563994,-4.601655,2,24
34.620155,23.831884,15.586253,2,24
2.997541,13.565547,-0.316035,2,24
25.641903,20.130447,6.617574,2,24
6.483498,4.64954,-2.887407,2,24
-4.730942,5.774815,1.034295,2,24
4.094085,-8.480263,-2.753332,2,24
35.400665000000004,17.046717,11.722012,2,24
0.014365,12.785037,-0.110133,2,24
4.194642,-8.714894000000001,-6.761225,2,24
3.610456,9.251195,4.826711,2,24
25.924416,22.500708,3.236961,2,24
8.844180999999999,-10.323798,0.430956,2,24
7.70933,16.218323,7.939172999999999,2,24
3.639187,17.606958,2.341529,2,24
-0.3734949999999999,-7.465121000000001,-5.12838,2,24
0.35913,8.853758000000001,4.333505000000001,2,24
23.276428,11.650186,-2.643199,2,24
8.734048,0.799663,1.288081,2,24
-3.20823,6.153099,-4.419696,2,24
-1.570596,-13.445837,-6.737283000000001,2,24
2.94008,-2.044648,-4.639962000000001,2,24
-3.174711,5.635951,4.836288,2,24
10.615891,9.730036,0.45011,2,24
14.470555,7.369353,2.226608,2,25
22.91251,20.527885,-12.291832,2,25
-1.575385,9.753978,-3.193865,2,25
6.976704,-12.670115,-1.58975,2,25
1.216255,8.130709,5.923255,2,25
19.938910999999997,28.835765999999996,-7.268796000000001,2,25
7.575253999999999,-8.259995,-3.960008999999999,2,25
3.236961,9.476251,-0.2585739999999999,2,25
23.329102,26.446352,13.570335,2,25
2.585738,5.142745,-2.06859,2,25
-5.420472,0.349553,2.791639,2,25
9.998186,-0.56982,1.786075,2,25
15.959748,25.603594,4.826711,2,25
-1.043872,18.550274,1.742979,2,25
3.1028860000000003,13.560759,-1.015141,2,25
11.343728,10.850522,-1.063026,2,25
-5.602432,8.51857,-3.366248,2,25
9.23683,-9.92636,-3.2513259999999997,2,25
8.283938000000001,12.564771,4.975151,2,25
20.09693,28.85492,1.120486,2,25
2.15957,-4.568136,-3.4332849999999997,2,25
-1.240196,4.266468,5.88016,2,25
5.736508000000001,18.368315,4.750097,2,25
5.746084,-5.51624,1.4987700000000002,2,25
0.47884,6.6941880000000005,0.42138,2,25
9.394848,-2.777274,3.117251,2,25
12.210428,24.942793,3.27048,2,25
2.375048,17.348385,-0.296881,2,25
-1.972822,-7.771578999999999,-5.84664,2,25
2.695871,9.902418,2.633622,2,25
8.322245,19.895817,3.29921,2,26
-1.015141,-4.0270470000000005,-2.557007,2,26
1.666364,11.985373,5.501876,2,26
0.225055,10.639832,-1.848324,2,26
6.517017,-11.180922,-5.45878,2,26
-1.096544,5.865794,9.097966,2,26
16.687586,17.444153,7.575253999999999,2,26
6.517017,6.133945,-1.661576,2,26
-2.06859,7.206548,-7.297527,2,26
7.445967,-9.68694,1.541866,2,26
10.108319,18.037916,7.694965,2,26
-2.274491,5.8274870000000005,-0.636858,2,26
0.143652,-5.319916,-3.5625720000000003,2,26
21.4712,21.270088,6.177041,2,26
6.076484,15.399506,2.5617959999999997,2,26
1.503559,-11.099519,-0.349553,2,26
-1.16837,8.647857,0.924162,2,26
29.281086,27.193342,6.890513,2,26
8.082825,3.122039,-1.814805,2,26
11.372458,20.728998,7.886500999999999,2,26
11.444284,21.303606,9.955091,2,26
-0.588974,-5.990292,0.21069,2,26
1.953669,10.314221,4.515465,2,26
7.532159,7.077260000000001,-3.5625720000000003,2,26
12.933477,10.687716,0.5841850000000001,2,26
-5.348646,8.647857,-2.54743,2,26
4.4149080000000005,-12.765883,-1.417367,2,26
14.709975,25.737667,14.537593,2,26
6.052542,20.427328,-2.949656,2,26
9.002198,-1.192312,-0.292093,2,26
1.340753,-1.034295,-2.202665,2,27
-0.196325,8.092402,-0.316035,2,27
-10.170568,-15.495273999999998,-6.938396000000001,2,27
2.662352,-5.181051999999999,-7.086836999999999,2,27
0.914585,8.451532,2.03986,2,27
9.844957,-0.354342,0.162806,2,27
29.261932,20.891804,11.257536,2,27
-2.442086,10.357317,-0.335188,2,27
8.566454,-14.652514000000002,-0.670376,2,27
0.766145,10.510546,7.589619,2,27
21.729774,26.795906,4.534618,2,27
1.35033,-6.861782000000001,-2.42772,2,27
8.384495,26.848577,-0.186748,2,27
1.762132,17.472883,7.508217,2,27
-1.5466540000000002,-10.160992,-0.21069,2,27
2.930503,10.793061,4.055778,2,27
8.872911,2.791639,-4.7931919999999995,2,27
18.77533,15.088259,7.738060000000001,2,27
-2.987964,9.782708,2.973599,2,27
8.360553,-18.38268,-0.914585,2,27
6.186618,-0.440533,-3.0741549999999997,2,27
3.816358,8.293515,2.197877,2,27
-5.21936,-18.579004,-1.565808,2,27
33.068714,26.66183,16.893488,2,27
-1.015141,10.0748,23.822308,2,27
5.583278,-11.908759,-11.501745,2,27
2.892196,15.887922,8.111555000000001,2,27
24.114397,16.917427,13.311762,2,27
-3.4332849999999997,-14.355634,-5.027823000000001,2,27
3.830723,16.175226000000002,8.015787,2,27
0.8475469999999999,-6.277597,5.080496,2,28
4.113238,3.543419,6.95755,2,28
-15.428235999999998,12.947843,-3.849876,2,28
-12.105083,-4.022259,-2.959233,2,28
4.189853,10.409989,-3.4189199999999995,2,28
-20.556616,30.454247,7.972692,2,28
-1.886631,6.852206,-0.459687,2,28
3.145981,7.627927000000001,7.781156,2,28
-6.737283000000001,26.341007,0.459687,2,28
0.062249,10.175357,-5.870582,2,28
3.08852,7.714117999999999,-0.612916,2,28
-5.631162000000001,-2.111686,-1.728614,2,28
5.046977,-5.252878,-3.260903,2,28
4.165911,6.665458,2.149993,2,28
-14.9063,18.660408,2.27928,2,28
-3.677494,17.022774,1.934515,2,28
0.761356,12.449849,-3.083732,2,28
-13.546393,-8.853758000000001,-1.987187,2,28
-3.859453,14.580688,3.5769379999999997,2,28
-17.611748000000002,31.469387,2.863465,2,28
1.37906,1.388637,-1.666364,2,28
4.477157,27.159824,4.453215,2,28
-2.30801,20.398598,0.8236049999999999,2,28
-2.8491,-2.0302830000000003,-1.7860740000000002,2,28
5.573702,5.6982,-0.0239419999999999,2,28
-7.805097,20.824766,-5.674258,2,28
5.12838,15.974113,-3.236961,2,28
4.7357309999999995,4.458004,2.322376,2,28
-7.455544000000001,24.004267,0.325611,2,28
4.630386,-0.215478,3.859453,2,28
9.102755,-11.291056,-0.2585739999999999,2,29
4.841076,1.776498,-3.093309,2,29
-3.892972,6.363788,4.850653,2,29
11.003751,-2.106897,-0.1915359999999999,2,29
14.700398000000002,23.309948,0.1915359999999999,2,29
2.748544,19.627666,-6.167464,2,29
0.177171,-7.412448,-1.388637,2,29
-0.134075,5.64074,2.126051,2,29
7.043741000000001,14.590265,-7.714117999999999,2,29
3.495535,-10.026917,-0.7038949999999999,2,29
6.947974,19.024326,9.461885,2,29
14.077906,31.138987,-3.567361,2,29
1.221043,1.857901,-7.105989999999999,2,29
-1.187524,6.38773,4.122815,2,29
12.62702,2.987964,0.143652,2,29
28.107927,27.20292,-10.007763,2,29
1.177947,13.498509,0.143652,2,29
16.457743,25.086445,-12.588713,2,29
8.06846,7.776367,-3.007117,2,29
-3.083732,7.517792999999999,2.858677,2,29
4.070143,-9.414001,-1.666364,2,29
8.719683,24.401703,-14.30775,2,29
-2.3558939999999997,16.462529999999997,21.32276,2,29
4.64954,-1.417367,-2.4851810000000003,2,29
0.8906430000000001,6.799533,2.456451,2,29
6.406884,22.452824,1.355118,2,29
3.931279,-1.929727,-1.163582,2,29
-2.3032220000000003,6.373365,5.372589,2,29
14.470555,7.369353,2.226608,2,29
22.91251,20.527885,-12.291832,2,29
9.552865,-15.222335,0.976834,2,30
-3.519476,5.032612,8.245631,2,30
25.76161,-5.856217,5.487509999999999,2,30
3.040636,-0.636858,-0.737414,2,30
-2.442086,9.859323,1.972822,2,30
-4.711789,9.672575,3.797204,2,30
4.242526,-11.429919,-0.670376,2,30
-5.032612,5.688624,2.557007,2,30
10.491392,4.716578,-3.007117,2,30
16.912642,9.844957,-6.665457000000001,2,30
-6.133945,3.1028860000000003,-1.604115,2,30
2.341529,-11.860875,-4.884171,2,30
3.08852,18.262970000000003,4.7453080000000005,2,30
-11.654974,2.27928,5.401319,2,30
9.80665,4.0509889999999995,5.401319,2,30
17.362753,15.519216,9.495404,2,30
-3.974375,9.308656,-2.3032220000000003,2,30
7.675811,-8.494628,0.052672,2,30
4.577714,7.819463000000001,8.987833,2,30
16.31409,19.742588,4.601656,2,30
8.384495,5.046977,-6.5122279999999995,2,30
4.539407,14.9063,9.552865,2,30
10.998962,24.123976000000003,3.734955,2,30
4.486733999999999,-1.340753,-1.441309,2,30
-0.277727,7.201759,0.560243,2,30
14.312538,1.94888,-1.37906,2,30
14.915876,19.148825,1.723825,2,30
-3.634398000000001,6.440403,-3.3997660000000005,2,30
9.102755,-11.291056,-0.2585739999999999,2,30
4.841076,1.776498,-3.093309,2,30
0.229843,9.131485,4.754885,2,31
5.281609,-10.213664,2.073379,2,31
10.002975,28.88365,10.620679,2,31
4.13718,5.635951,4.659117,2,31
-16.160861999999998,30.272284999999997,-3.007117,2,31
1.786075,15.62456,8.169016000000001,2,31
4.912902,9.260772,1.891419,2,31
-14.78659,-10.323798,-3.031059,2,31
1.1300629999999998,18.20551,4.304775,2,31
-7.489063000000001,15.581465,-1.848324,2,31
-2.695871,-9.260772,4.276045,2,31
3.227384,5.525818,-0.905008,2,31
0.014365,4.989517,0.1005559999999999,2,31
-13.125013,-8.197746,1.479617,2,31
3.892972,19.335573,0.407014,2,31
-0.004788,16.515203,-8.690952000000001,2,31
-2.274491,-5.0421879999999994,4.477157,2,31
-5.152322,14.882357999999998,-9.217676,2,31
1.733402,26.54212,-0.397437,2,31
-1.723825,-7.163450999999999,-4.285621,2,31
3.141193,7.211336,7.393294999999999,2,31
-14.087482,29.913157,-2.312799,2,31
13.522451,-4.927267,1.5370780000000002,2,31
-5.3390699999999995,27.787106,4.3813889999999995,2,31
0.914585,8.690952000000001,3.375825,2,31
-9.758766,-9.911995,-1.086968,2,31
-3.284845,14.542381,-0.397437,2,31
-12.464214,28.744784999999997,-1.584961,2,31
0.8475469999999999,-6.277597,5.080496,2,31
4.113238,3.543419,6.95755,2,31
12.837709,11.070788,-4.6208089999999995,2,32
14.614207,8.767567,-3.4572269999999996,2,32
-1.7525560000000002,9.65821,-0.818817,2,32
32.953793,23.520638,10.429143,2,32
13.833697,0.387861,1.192313,2,32
-1.862689,6.5792660000000005,-2.470816,2,32
7.465121000000001,-10.261548,-0.014365,2,32
-1.177947,12.861651,8.959103,2,32
32.647335,20.077776,19.292477,2,32
7.747636999999999,-1.781286,-4.022259,2,32
-1.125275,7.144297999999999,-0.536301,2,32
-0.301669,7.666233999999999,15.71554,2,32
3.3854010000000003,3.5194769999999997,3.98874,2,32
-1.465251,7.766791,0.59855,2,32
6.1818290000000005,1.192313,-0.7230489999999999,2,32
14.393941,14.149732,18.440142,2,32
7.958327000000001,15.461754999999998,6.789956,2,32
3.98874,-6.550535,-3.141193,2,32
0.033519,10.91756,3.663129,2,32
2.954445,-3.150769,-6.0333879999999995,2,32
5.171476,-3.342306,-2.394202,2,32
-3.045424,2.94008,5.750873,2,32
3.797204,8.441956,5.142745,2,32
1.915361,7.829039999999999,18.042704,2,32
3.399767,10.836157,11.96622,2,32
4.88896,-2.695871,-3.452439,2,32
0.11971,9.074024,4.481946,2,32
0.905008,3.730166000000001,-14.480132,2,32
5.085284,-4.252102,-3.509899,2,32
1.436521,7.536947,5.157111,2,32
-4.82671,25.560497,-8.446744,2,33
-2.1883,5.214572,-0.469264,2,33
2.628834,15.490485,-8.169016000000001,2,33
-1.80044,15.677233,-1.010353,2,33
2.504335,8.379707000000002,0.287304,2,33
-7.589619,-2.935291,-5.291186,2,33
-2.2313959999999997,12.215217,2.959233,2,33
-22.041021,28.601133,-1.106121,2,33
-1.125275,5.846641,-1.6807299999999998,2,33
1.714248,5.487509999999999,4.855441000000001,2,33
-7.508216,6.066907,-3.524265,2,33
-2.72939,-6.9671270000000005,1.197101,2,33
1.206678,7.757214,-0.363919,2,33
-8.437167,18.301277,-9.318233,2,33
-11.334151,10.898406,-2.193089,2,33
5.104438,9.107543,6.7277070000000005,2,33
-2.073379,-5.813122,1.115698,2,33
-9.888053,26.580427,2.557007,2,33
-0.493206,12.722788,5.343858,2,33
-2.145205,-3.505111,-2.470816,2,33
3.184288,8.456321,-1.628057,2,33
-0.196325,9.442732,1.288081,2,33
-6.1818290000000005,-5.588066,0.138864,2,33
-2.896984,7.072472,3.830723,2,33
-22.031445,25.756823,-5.377377,2,33
-8.470686,12.200851,-8.212111,2,33
4.237737,5.650316,4.194642,2,33
-6.924030999999999,5.224149,-6.7516490000000005,2,33
-1.01993,25.76161,1.503559,2,33
-7.958326,16.232687,8.020576,2,33
-2.375048,-12.239159,-13.632585,2,34
2.604892,7.953538000000001,6.833052,2,34
-12.698846,33.303345,-6.2153480000000005,2,34
-4.151545,6.234502,-9.730036,2,34
2.858677,4.5298300000000005,0.775721,2,34
-7.029375999999999,18.219875,-2.37026,2,34
-4.941632,-3.600879,-4.0845080000000005,2,34
3.701436,3.217807,5.4396260000000005,2,34
-21.183899,25.196577,-4.007893,2,34
-6.2057709999999995,7.331046000000001,-2.5378540000000003,2,34
6.2153480000000005,5.267244,-1.685518,2,34
1.489194,-9.217676,-3.5146879999999996,2,34
-11.123461,33.26025,-5.27682,2,34
4.630386,4.41012,1.556231,2,34
-6.713341000000001,0.277727,-11.113884,2,34
-9.830592,21.08813,-15.121778,2,34
-0.349553,5.712566000000001,2.681506,2,34
-10.098742,-9.916783,5.0374,2,34
-3.155558,22.318748,-0.277727,2,34
-9.069236,20.508732,4.266468,2,34
-5.152322,2.470816,-1.771709,2,34
4.659117,7.062895,3.945645,2,34
2.801216,8.264783999999999,12.119449,2,34
-7.354987,-5.300762000000001,-4.31914,2,34
-9.44752,29.046455,13.977348999999998,2,34
1.393425,14.513651,5.286398,2,34
-3.217807,-1.47004,0.790087,2,34
-0.47884,7.177817,1.867477,2,34
-10.113108,10.821792,-7.029375999999999,2,34
-9.471462,15.021221,4.874594999999999,2,34
-0.54109,-11.702858,-13.900735,2,35
5.046977,-0.8523360000000001,-1.853112,2,35
-5.267244,7.0245880000000005,0.42138,2,35
15.562311,2.978387,-5.741296,2,35
33.303345,32.987312,0.4548979999999999,2,35
-6.17704,8.8777,-0.991199,2,35
9.562442,-10.146626,2.097321,2,35
1.7477669999999998,12.564771,6.564901,2,35
30.267498,29.252356,-4.649539,2,35
16.721106,-0.78051,-9.428367,2,35
-2.528277,5.056554,2.470816,2,35
17.520767000000003,25.680208,13.057976,2,35
3.375825,-3.696647,-2.925714,2,35
-4.314351,4.826711,-2.1739349999999997,2,35
18.20551,1.465252,-2.499546,2,35
15.322891,21.394587,34.25145,2,35
-4.553771,8.863335000000001,-3.744531,2,35
9.557653,-14.350845,3.3518830000000004,2,35
-1.2162540000000002,9.241618,3.011906,2,35
12.26789,26.144682,5.176265,2,35
2.978387,-8.058882,-5.214571,2,35
21.571756,28.567615999999997,4.309563,2,35
-5.7029879999999995,10.079589,-3.3997660000000005,2,35
7.608772999999999,-12.650962,-10.520123,2,35
-2.312799,9.950302,3.1028860000000003,2,35
34.227509999999995,35.362359999999995,-9.710882000000002,2,35
3.236961,5.209783,-3.394978,2,35
-6.229712999999999,0.143652,-3.4955339999999997,2,35
-5.645528,-14.647726,-11.252748,2,35
1.94888,-6.588842999999999,0.1819589999999999,2,35
11.358092999999998,13.79539,1.532289,2,36
11.152191,22.816742,4.295198,2,36
0.474052,-8.580819,7.168239999999999,2,36
10.242394,7.192182000000001,4.031836,2,36
-5.626374,8.020576,-5.8179099999999995,2,36
5.176265,-9.064447,-9.385271,2,36
14.42746,24.109612,1.2545620000000002,2,36
9.284714,18.741812,-1.877054,2,36
4.242526,-4.017469999999999,-1.192312,2,36
-1.067814,4.855441000000001,5.995081,2,36
-0.459687,7.896077,-0.301669,2,36
8.944737,-9.624691,1.508347,2,36
-0.8619129999999999,10.429143,5.2480910000000005,2,36
31.364042,26.714502000000003,14.384364,2,36
0.560243,-4.295198,2.777274,2,36
-3.768473,5.568912999999999,1.924938,2,36
4.13718,-5.750872,-3.65834,2,36
13.651738,23.4536,6.454768,2,36
-2.351106,12.741941,-4.443638,2,36
1.5370780000000002,-11.152191,0.11971,2,36
1.733402,9.323022,0.612916,2,36
-6.306327,6.775591,-4.979939,2,36
2.087744,-12.617443,0.909797,2,36
5.683835,4.726155,-3.323152,2,36
38.786068,16.79293,6.081272,2,36
4.338294,-2.9209259999999997,-0.6991069999999999,2,36
-5.765238,5.631162000000001,2.4085669999999997,2,36
5.616797,-4.429273,-5.061342,2,36
18.363527,22.4624,29.817389,2,36
9.476251,17.223886,1.465252,2,36
-13.493721,-8.106766,0.071826,2,37
-1.359906,3.241749,-2.853888,2,37
2.461239,4.826711,-0.684742,2,37
-1.316811,3.643975,-8.327033,2,37
-14.729129,23.338678,-5.889736,2,37
1.005565,13.31655,1.599327,2,37
-3.351882,-11.166556,-2.509123,2,37
-2.126051,10.477027,8.226477000000001,2,37
-38.738186,33.964146,-3.734954,2,37
-5.157109999999999,-5.841851999999999,-9.165004,2,37
-17.793707,31.957804,-5.468356,2,37
3.366248,13.900735,10.553641,2,37
-2.375048,-12.239159,-13.632585,2,37
2.604892,7.953538000000001,6.833052,2,37
-12.698846,33.303345,-6.2153480000000005,2,37
-4.151545,6.234502,-9.730036,2,37
2.858677,4.5298300000000005,0.775721,2,37
-7.029375999999999,18.219875,-2.37026,2,37
-4.941632,-3.600879,-4.0845080000000005,2,37
3.701436,3.217807,5.4396260000000005,2,37
-21.183899,25.196577,-4.007893,2,37
-6.2057709999999995,7.331046000000001,-2.5378540000000003,2,37
6.2153480000000005,5.267244,-1.685518,2,37
1.489194,-9.217676,-3.5146879999999996,2,37
-11.123461,33.26025,-5.27682,2,37
4.630386,4.41012,1.556231,2,37
-6.713341000000001,0.277727,-11.113884,2,37
-9.830592,21.08813,-15.121778,2,37
-0.349553,5.712566000000001,2.681506,2,37
-10.098742,-9.916783,5.0374,2,37
1.201889,9.457097,1.517924,2,38
18.253393,27.844565999999997,-8.911219000000001,2,38
2.126051,4.271256,-7.153875,2,38
-4.309563,5.348647,-2.221819,2,38
3.332729,-9.255983,-3.284845,2,38
15.452178,27.691338,17.30529,2,38
-0.421379,15.648502,3.624822,2,38
9.385271,18.195932,-3.2513259999999997,2,38
16.558298,19.804836,2.829947,2,38
-1.675941,12.646173,14.384364,2,38
14.221559,-11.889606,2.604892,2,38
-8.475474,15.62456,16.438589999999998,2,38
1.623269,22.70661,25.086445,2,38
4.3574470000000005,-3.653551999999999,-3.98874,2,38
-3.620033,5.722142,2.70066,2,38
-4.271256,12.277467,8.441956,2,38
8.676587,-11.089942,-0.684742,2,38
1.766921,9.414001,1.733402,2,38
16.07467,23.985113,16.184803,2,38
4.7357309999999995,3.615245,-7.958326,2,38
-3.055001,3.940856,2.60968,2,38
0.2489969999999999,-9.385271,-4.683058,2,38
11.769896,29.046455,6.612785000000001,2,38
-1.637634,7.876924000000001,7.651869,2,38
0.301669,0.009577,-10.941502,2,38
22.96997,18.55985,1.125275,2,38
-6.995857000000001,5.463568,-2.710236,2,38
6.80911,-6.617572999999999,-1.838747,2,38
11.358092999999998,13.79539,1.532289,2,38
11.152191,22.816742,4.295198,2,38
-21.997925,26.848577,-12.670115,2,39
-0.354342,6.981492,-7.264008,2,39
1.3982139999999998,8.39886,3.940856,2,39
-8.269572,-2.978387,2.059013,2,39
-18.607735,2.7964279999999997,-1.537077,2,39
2.2313959999999997,-2.4085669999999997,3.2321720000000003,2,39
7.005433999999999,-4.232949,5.774815,2,39
-11.774684,-8.049306,-3.193865,2,39
-10.19451,2.992752,-18.32522,2,39
-1.92015,-1.695095,-0.1292869999999999,2,39
2.183512,7.584830999999999,-4.955997,2,39
-4.850651999999999,5.31034,-12.717999,2,39
-4.82671,25.560497,-8.446744,2,39
-2.1883,5.214572,-0.469264,2,39
2.628834,15.490485,-8.169016000000001,2,39
-1.80044,15.677233,-1.010353,2,39
2.504335,8.379707000000002,0.287304,2,39
-7.589619,-2.935291,-5.291186,2,39
-2.2313959999999997,12.215217,2.959233,2,39
-22.041021,28.601133,-1.106121,2,39
-1.125275,5.846641,-1.6807299999999998,2,39
1.714248,5.487509999999999,4.855441000000001,2,39
-7.508216,6.066907,-3.524265,2,39
-2.72939,-6.9671270000000005,1.197101,2,39
1.206678,7.757214,-0.363919,2,39
-8.437167,18.301277,-9.318233,2,39
-11.334151,10.898406,-2.193089,2,39
5.104438,9.107543,6.7277070000000005,2,39
-2.073379,-5.813122,1.115698,2,39
-9.888053,26.580427,2.557007,2,39
39.18351,39.188293,-6.550535,2,40
6.44998,4.338294,-4.458003,2,40
-4.003105000000001,1.9919759999999995,-8.633492,2,40
8.394072,-16.112978,-2.264915,2,40
10.419566,14.686032999999998,-2.954445,2,40
39.188293,25.435999,6.435614,2,40
7.675811,-12.167333,0.306458,2,40
6.804322,13.364434,11.113884,2,40
39.188293,26.06328,13.656527,2,40
4.453215,-3.20823,-5.602432,2,40
-0.866701,6.550536,-4.941632,2,40
6.066907,-15.476120000000002,-3.921702,2,40
3.380613,15.974113,9.23683,2,40
39.15956,32.374396999999995,7.522582000000001,2,40
4.8027690000000005,-1.905785,-3.634398000000001,2,40
8.528147,14.058751999999998,-0.565032,2,40
31.105469,29.87006,11.386824,2,40
2.762909,-5.511451999999999,1.201889,2,40
-2.734178,7.163452,4.74052,2,40
0.761356,-14.097059,-4.007893,2,40
3.605668,27.80147,12.98615,2,40
11.84651,17.573439999999998,27.394453,2,40
3.754108,-3.308787,-2.882619,2,40
13.565547,28.58198,27.528532,2,40
-0.3734949999999999,16.687586,-0.320823,2,40
5.1235919999999995,-7.144297999999999,-2.322375,2,40
-0.933739,13.752295000000002,-6.919242999999999,2,40
4.515465,11.971008,-2.394202,2,40
21.394587,18.20551,3.356671,2,40
1.029507,15.069105,-8.853758000000001,2,40
1.345541,8.494628,3.145981,2,41
11.051635,10.036493,-4.568136,2,41
13.493721,6.50744,-5.2241480000000005,2,41
-1.570596,8.37013,-0.3304,2,41
5.779603,-14.250289000000002,-4.343082,2,41
6.919242999999999,17.520767000000003,1.307234,2,41
12.243947,19.484013,8.255207,2,41
6.866571,-5.200206,-1.790863,2,41
29.87006,18.009186,7.292739,2,41
-4.022259,9.370906,-0.713472,2,41
-0.842759,-19.756952,-1.604115,2,41
-1.321599,5.291186,1.407791,2,41
26.910828,25.373749,19.053057,2,41
6.426038,-4.003105000000001,-3.77805,2,41
2.427721,8.944737,1.283292,2,41
-0.493206,17.616535,4.76925,2,41
1.197101,-9.643845,-1.896208,2,41
2.015918,10.692505,5.4396260000000005,2,41
9.974244,2.772486,-1.000776,2,41
18.914194,11.147403,2.164359,2,41
11.468226,7.235278,0.45011,2,41
9.586384,-3.1028849999999997,-2.288857,2,41
7.953538000000001,10.280702,7.479486,2,41
14.470555,0.21069,0.23942,2,41
30.727184,15.758636,23.195026,2,41
0.938527,13.517663,4.486733999999999,2,41
4.534618,-5.501875,-2.418144,2,41
5.252879,7.436391,10.122684,2,41
16.543934,12.89517,-6.904877000000001,2,41
19.110518,7.953538000000001,7.364565,2,41
-1.4604629999999998,10.845734,3.931279,2,42
16.390705,8.034941,-4.242525,2,42
4.912902,-11.626244,-1.905785,2,42
-1.201889,12.148179,1.996764,2,42
17.252617,18.239029,-6.794744000000001,2,42
10.965444,5.315128,-6.114791,2,42
-10.644621,3.2896330000000003,-6.924030999999999,2,42
9.572019,-11.803414,-6.742072,2,42
0.8475469999999999,11.401189,4.237737,2,42
22.40494,37.52193,-10.141838,2,42
6.0286,-2.087744,1.766921,2,42
16.405070000000002,21.452047,21.428104,2,42
6.761226,25.16306,1.163582,2,42
4.400543,-3.438074,0.220267,2,42
-1.666364,10.486604,2.935291,2,42
12.53604,10.237606,3.39019,2,42
28.299463,17.425,17.128119,2,42
-4.927267,4.989517,-3.011906,2,42
10.213664,-15.935806,1.422156,2,42
1.790863,23.908499,7.489063000000001,2,42
11.353305,25.656265,16.002844,2,42
14.18325,4.194642,4.912902,2,42
28.213271999999996,30.056808,12.440272,2,42
2.341529,16.041151,-3.184288,2,42
15.744270000000002,-12.737153,-8.954314,2,42
-0.215478,9.940725,10.199299,2,42
34.49566,39.188293,-10.16578,2,42
-1.3982139999999998,-0.062249,-4.362235,2,42
-6.234501,3.1795,-5.161899,2,42
-1.508347,-6.282385,3.045425,2,42
-2.312799,9.950302,3.1028860000000003,2,43
34.227509999999995,35.362359999999995,-9.710882000000002,2,43
3.236961,5.209783,-3.394978,2,43
-6.229712999999999,0.143652,-3.4955339999999997,2,43
-5.645528,-14.647726,-11.252748,2,43
1.94888,-6.588842999999999,0.1819589999999999,2,43
-2.557007,6.196194,-2.873042,2,43
9.169792,12.239159,-5.530606,2,43
17.448942000000002,14.705187,-1.312023,2,43
-7.508216,5.746084,-2.063802,2,43
1.479617,-14.379576,-4.390966000000001,2,43
-1.838747,27.657818,2.394202,2,43
5.104438,25.507826,10.979809,2,43
2.240973,-3.055001,-0.354342,2,43
36.027946,39.188293,12.445061,2,43
-1.101333,13.79539,6.378154,2,43
16.175226000000002,-11.779472,-8.034939999999999,2,43
3.2321720000000003,11.803414,-0.670376,2,43
3.5386300000000004,17.496826000000002,-6.593630999999999,2,43
4.659117,1.474828,-2.097321,2,43
-7.967903,2.413355,-7.048528999999999,2,43
38.32638,21.183899,-0.0478839999999999,2,43
9.160215,-2.2505490000000004,-1.383848,2,43
-5.214571,3.112462,-6.26802,2,43
-0.617704,-13.13459,-5.841851999999999,2,43
16.725893,34.500446000000004,8.537724,2,43
5.4539919999999995,23.72175,8.499416,2,43
0.1723829999999999,-7.714117999999999,2.944868,2,43
-1.4604629999999998,10.845734,3.931279,2,43
16.390705,8.034941,-4.242525,2,43
16.543934,12.89517,-6.904877000000001,2,44
19.110518,7.953538000000001,7.364565,2,44
-3.1986529999999997,7.077260000000001,1.7477669999999998,2,44
29.175741,23.578098,14.968549,2,44
4.376601,-1.225831,-2.614468,2,44
-3.663128,6.799533,2.600103,2,44
8.652645,-2.954445,-3.203442,2,44
31.857248,24.79914,15.32768,2,44
4.074930999999999,15.413871,0.814029,2,44
2.70066,-7.862558,-3.98874,2,44
-5.626374,6.732496,8.508992999999998,2,44
0.751779,10.635044,-1.853112,2,44
8.327033,-10.912771,-2.37026,2,44
5.21936,11.765107,7.958327000000001,2,44
33.686417,21.739351,13.421895,2,44
-0.986411,-2.762909,-1.4604629999999998,2,44
2.116475,13.546393,1.786075,2,44
13.76666,-0.033519,1.335965,2,44
16.189592,9.682152,4.3718129999999995,2,44
-0.21069,10.16578,-0.914585,2,44
2.724602,-18.80406,-5.6982,2,44
5.334282,2.461239,-1.403002,2,44
-8.576031,6.1578870000000006,-1.723825,2,44
4.094085,-14.954184,-2.4085669999999997,2,44
5.942409,15.978902,4.386178,2,44
14.9063,25.187002,-14.896723,2,44
1.340753,-1.034295,-2.202665,2,44
-0.196325,8.092402,-0.316035,2,44
-10.170568,-15.495273999999998,-6.938396000000001,2,44
2.662352,-5.181051999999999,-7.086836999999999,2,44
3.380613,15.974113,9.23683,2,45
39.15956,32.374396999999995,7.522582000000001,2,45
4.8027690000000005,-1.905785,-3.634398000000001,2,45
8.528147,14.058751999999998,-0.565032,2,45
31.105469,29.87006,11.386824,2,45
2.762909,-5.511451999999999,1.201889,2,45
-2.734178,7.163452,4.74052,2,45
0.761356,-14.097059,-4.007893,2,45
3.605668,27.80147,12.98615,2,45
11.84651,17.573439999999998,27.394453,2,45
3.754108,-3.308787,-2.882619,2,45
13.565547,28.58198,27.528532,2,45
-0.3734949999999999,16.687586,-0.320823,2,45
5.1235919999999995,-7.144297999999999,-2.322375,2,45
-0.933739,13.752295000000002,-6.919242999999999,2,45
4.515465,11.971008,-2.394202,2,45
21.394587,18.20551,3.356671,2,45
1.029507,15.069105,-8.853758000000001,2,45
11.219229,-14.690822,0.483629,2,45
4.7453080000000005,4.151546,3.265691,2,45
-4.999093,4.606444000000001,-4.194641000000001,2,45
1.5466540000000002,-9.346964,-5.583278,2,45
11.506534,30.813375,10.778696,2,45
6.703765,23.147142,3.155558,2,45
4.8027690000000005,-2.193089,-1.58975,2,45
-2.542642,4.908114,-0.316035,2,45
0.54109,-6.6941880000000005,-3.945644,2,45
5.391742,-3.691859,-1.623269,2,45
-2.432509,7.206548,1.173159,2,45
7.953538000000001,2.710236,2.140417,2,45
1.843535,-0.6081270000000001,-3.964798000000001,2,46
1.072602,24.305935,5.003882,2,46
-1.043872,16.448166,3.945645,2,46
4.118027,-9.672575,5.841851999999999,2,46
-0.378284,8.226477000000001,4.118027,2,46
6.167464,17.262194,2.37026,2,46
1.982399,11.018116,-0.5841850000000001,2,46
-5.161899,4.721366000000001,-1.278504,2,46
-11.659762,13.101071,7.536947,2,46
-3.5769370000000005,13.737929,7.714117999999999,2,46
-0.287304,-7.331045,-5.181051999999999,2,46
1.345541,4.390966000000001,4.10845,2,46
-21.997925,26.848577,-12.670115,2,46
-0.354342,6.981492,-7.264008,2,46
1.3982139999999998,8.39886,3.940856,2,46
-8.269572,-2.978387,2.059013,2,46
-18.607735,2.7964279999999997,-1.537077,2,46
2.2313959999999997,-2.4085669999999997,3.2321720000000003,2,46
7.005433999999999,-4.232949,5.774815,2,46
-11.774684,-8.049306,-3.193865,2,46
-10.19451,2.992752,-18.32522,2,46
-1.92015,-1.695095,-0.1292869999999999,2,46
2.183512,7.584830999999999,-4.955997,2,46
-4.850651999999999,5.31034,-12.717999,2,46
-4.82671,25.560497,-8.446744,2,46
-2.1883,5.214572,-0.469264,2,46
2.628834,15.490485,-8.169016000000001,2,46
-1.80044,15.677233,-1.010353,2,46
2.504335,8.379707000000002,0.287304,2,46
-7.589619,-2.935291,-5.291186,2,46
6.770803,6.081272,-4.539406,2,47
-7.958326,0.8906430000000001,-13.704411,2,47
-8.068458999999999,24.454376,8.978256,2,47
5.305551,9.739613,0.833182,2,47
-8.48984,-7.560889,-1.489193,2,47
-0.4548979999999999,27.437551000000003,12.47858,2,47
1.221043,16.041151,-3.600879,2,47
-14.178462,19.967642,-5.4970870000000005,2,47
-9.188946,14.422671,-8.872911,2,47
5.741296,2.949657,-1.733402,2,47
-7.455544000000001,5.621586,-13.967772,2,47
-1.173159,21.025879,-10.702082,2,47
1.7094599999999998,6.789956,3.505111,2,47
-9.557653,-4.692635,-1.963245,2,47
-0.92895,22.505495,6.947974,2,47
0.186748,15.155296,-0.086191,2,47
-1.388637,-9.983821,-3.332729,2,47
0.536301,11.104307,-4.232949,2,47
6.742072,4.965575,3.4237089999999997,2,47
-8.178592,-2.748543,-5.0374,2,47
5.942409,21.748928,5.961562000000001,2,47
-1.867477,15.476120000000002,3.20823,2,47
-8.054094000000001,-8.839393,-6.263232,2,47
1.335965,10.117896,1.7094599999999998,2,47
-26.489449,32.048782,2.4085669999999997,2,47
-1.288081,4.228161,-7.321469,2,47
5.449203,6.459556,-0.426168,2,47
4.831499,15.409082,4.13718,2,47
-2.413355,-8.341399000000001,1.44131,2,47
4.88896,6.785168,-4.611232,2,47
16.888699,20.130447,-0.5171479999999999,2,48
6.947974,5.750873,-4.979939,2,48
-3.270479,5.228937,-4.434061,2,48
2.020706,-4.55856,-3.2896330000000003,2,48
22.4624,20.326773,8.959103,2,48
3.452439,15.035586,3.2513259999999997,2,48
3.29921,-8.686164,-1.302446,2,48
-0.316035,6.5361709999999995,4.367024,2,48
26.551696999999997,22.936453,2.475605,2,48
8.576031,-8.700529,-2.351106,2,48
9.514558,18.665197,0.402226,2,48
11.334151,23.927652,-8.250418,2,48
4.606444000000001,1.503559,2.073379,2,48
-1.37906,6.023812,-1.144428,2,48
8.130709,-2.121263,0.842759,2,48
20.810402,24.68422,7.125145,2,48
2.633622,15.83525,0.59855,2,48
5.1092260000000005,-4.156333999999999,1.7046720000000002,2,48
23.247698,19.972431,3.8403,2,48
0.560243,13.273454999999998,0.009577,2,48
2.667141,-7.838616,-9.548077,2,48
4.017469999999999,8.705316999999999,-2.226607,2,48
22.357056,20.887016,-2.82037,2,48
17.922995,10.156203,2.523489,2,48
-2.164358,9.524135,-0.8475469999999999,2,48
9.749189,-8.705316999999999,-5.123591,2,48
3.3039980000000004,7.0245880000000005,-1.331176,2,48
-3.275268,8.552089,0.665588,2,48
5.252879,-4.295198,-1.5466540000000002,2,48
21.490354999999997,29.525295,8.437167,2,48
4.606444000000001,1.503559,2.073379,2,49
-1.37906,6.023812,-1.144428,2,49
8.130709,-2.121263,0.842759,2,49
20.810402,24.68422,7.125145,2,49
2.633622,15.83525,0.59855,2,49
5.1092260000000005,-4.156333999999999,1.7046720000000002,2,49
23.247698,19.972431,3.8403,2,49
0.560243,13.273454999999998,0.009577,2,49
2.667141,-7.838616,-9.548077,2,49
4.017469999999999,8.705316999999999,-2.226607,2,49
22.357056,20.887016,-2.82037,2,49
17.922995,10.156203,2.523489,2,49
-2.164358,9.524135,-0.8475469999999999,2,49
9.749189,-8.705316999999999,-5.123591,2,49
3.3039980000000004,7.0245880000000005,-1.331176,2,49
-3.275268,8.552089,0.665588,2,49
5.252879,-4.295198,-1.5466540000000002,2,49
21.490354999999997,29.525295,8.437167,2,49
2.547431,17.496826000000002,5.779603,2,49
4.501099,-4.481945,-5.856217,2,49
-2.03986,10.156203,1.958457,2,49
1.675941,3.811569,-2.710236,2,49
19.416977,17.506401,5.832276,2,49
3.117251,9.409213,0.076614,2,49
16.812084,16.534357,-3.883395,2,49
9.935937,5.281609,4.999093,2,49
-3.112462,4.812346,-1.307234,2,49
2.667141,-7.307103,-4.663905000000001,2,49
-0.4548979999999999,15.648502,3.404555,2,49
10.864887,22.610842,13.493721,2,49
-2.504335,-7.484274,-9.294291,2,50
-9.753978,14.312538,-2.126051,2,50
6.44998,4.419697,3.801993,2,50
-10.304645,5.626374,0.866701,2,50
3.040636,6.488287000000001,13.541605,2,50
7.28795,10.271125,-0.110133,2,50
-5.865794,7.603985000000001,-1.173159,2,50
7.52737,-13.55597,-5.157109999999999,2,50
9.308656,24.38255,-0.019154,2,50
-4.61602,5.147533999999999,-0.550666,2,50
4.247314,1.44131,0.555455,2,50
-3.021482,6.722919,28.610709999999997,2,50
14.135366,14.753070999999998,-6.847417,2,50
7.489063000000001,-12.50731,3.246538,2,50
7.283162,20.66196,14.647726,2,50
6.4787099999999995,24.511839,5.185841,2,50
4.501099,-6.861782000000001,-0.895431,2,50
-3.730166000000001,3.782839,2.547431,2,50
11.525687,5.559336,1.455675,2,50
18.952501,25.594019,4.716578,2,50
1.795651,8.063671000000001,0.339977,2,50
5.291186,11.176133,-5.951985,2,50
14.949395,17.535133,10.299856,2,50
-4.903325,7.795521000000001,-3.351882,2,50
3.4237089999999997,-10.228029,5.176265,2,50
4.817133999999999,15.169662,-0.445322,2,50
21.662737,19.57978,1.067814,2,50
6.397307,3.739743,0.325611,2,50
-4.122815,8.18817,0.684742,2,50
8.844180999999999,24.679432,9.576807,2,50
6.627151,21.519085,4.659117,2,51
16.864758,5.463568,-7.503428,2,51
23.654713,24.128765,-2.346318,2,51
-1.843535,10.381259,-1.388637,2,51
0.612916,-10.400413,0.0957679999999999,2,51
6.4212489999999995,29.022512,8.8777,2,51
5.214572,20.910957,8.30788,2,51
0.565032,-9.792285,-0.325611,2,51
-2.7389669999999997,4.458004,8.255207,2,51
-2.585738,7.244855,0.521936,2,51
-2.140416,-19.938910999999997,-2.284068,2,51
30.119057,23.142353,-16.376339,2,51
-4.165911,7.268797,2.226608,2,51
-1.522712,-15.916653,1.92015,2,51
12.909535,28.543673,0.354342,2,51
-0.11971,16.591818,-0.071826,2,51
4.644751,-16.098612,-2.715025,2,51
5.736508000000001,13.55597,7.354988,2,51
-8.006210000000001,5.315128,2.284068,2,51
7.886500999999999,-12.397177,1.120486,2,51
30.674513,24.890121,-4.079719,2,51
1.187524,13.072341,-1.953669,2,51
1.44131,-14.585477,3.610456,2,51
6.0286,17.889475,-0.732626,2,51
15.35641,25.665842,-2.499546,2,51
0.550666,-3.926491,0.895431,2,51
-3.246537,8.75799,-3.605668,2,51
-1.345541,5.391742,-1.359906,2,51
17.860744,-3.758896,-3.394978,2,51
18.689138,22.256498,-1.335964,2,51
1.7094599999999998,6.789956,3.505111,2,52
-9.557653,-4.692635,-1.963245,2,52
-0.92895,22.505495,6.947974,2,52
0.186748,15.155296,-0.086191,2,52
-1.388637,-9.983821,-3.332729,2,52
0.536301,11.104307,-4.232949,2,52
6.742072,4.965575,3.4237089999999997,2,52
-8.178592,-2.748543,-5.0374,2,52
5.942409,21.748928,5.961562000000001,2,52
-1.867477,15.476120000000002,3.20823,2,52
-8.054094000000001,-8.839393,-6.263232,2,52
1.335965,10.117896,1.7094599999999998,2,52
-26.489449,32.048782,2.4085669999999997,2,52
-1.288081,4.228161,-7.321469,2,52
5.449203,6.459556,-0.426168,2,52
4.831499,15.409082,4.13718,2,52
-2.413355,-8.341399000000001,1.44131,2,52
4.88896,6.785168,-4.611232,2,52
-20.561403,36.46369,-6.014234,2,52
0.411803,11.080365,-10.812215,2,52
0.229843,9.131485,4.754885,2,52
5.281609,-10.213664,2.073379,2,52
10.002975,28.88365,10.620679,2,52
4.13718,5.635951,4.659117,2,52
-16.160861999999998,30.272284999999997,-3.007117,2,52
1.786075,15.62456,8.169016000000001,2,52
4.912902,9.260772,1.891419,2,52
-14.78659,-10.323798,-3.031059,2,52
1.1300629999999998,18.20551,4.304775,2,52
-7.489063000000001,15.581465,-1.848324,2,52
12.909535,28.543673,0.354342,2,53
-0.11971,16.591818,-0.071826,2,53
4.644751,-16.098612,-2.715025,2,53
5.736508000000001,13.55597,7.354988,2,53
-8.006210000000001,5.315128,2.284068,2,53
7.886500999999999,-12.397177,1.120486,2,53
30.674513,24.890121,-4.079719,2,53
1.187524,13.072341,-1.953669,2,53
1.44131,-14.585477,3.610456,2,53
6.0286,17.889475,-0.732626,2,53
15.35641,25.665842,-2.499546,2,53
0.550666,-3.926491,0.895431,2,53
-3.246537,8.75799,-3.605668,2,53
-1.345541,5.391742,-1.359906,2,53
17.860744,-3.758896,-3.394978,2,53
18.689138,22.256498,-1.335964,2,53
-0.143652,8.240842,-0.7038949999999999,2,53
0.80924,-20.618866,-1.489193,2,53
15.629349,29.8126,2.30801,2,53
15.528792,30.004135,10.548853,2,53
-0.205901,-14.528016,-1.479617,2,53
14.54717,4.592079,4.553772,2,53
-8.231264999999999,4.299987000000001,1.968034,2,53
18.784906,-11.453861,1.766921,2,53
15.787366,15.883134,-1.628057,2,53
-2.202665,9.428367,-2.020706,2,53
1.915361,-19.531897,-0.71826,2,53
16.70674,25.890898,4.161122,2,53
8.676587,20.915747,-7.613561,2,53
3.701436,-9.892841,-2.5905259999999997,2,53
2.2601259999999996,14.077906,-0.2585739999999999,2,54
2.96881,-0.593762,8.044518,2,54
0.981623,8.336611,-0.8236049999999999,2,54
1.7525560000000002,-10.093954,-7.240066000000001,2,54
3.371036,10.132261,3.002329,2,54
9.619903,12.483368,-7.632714999999999,2,54
6.655881,3.016694,-1.896208,2,54
4.5298300000000005,8.882488,-4.510676,2,54
-2.48997,-3.548207,1.345541,2,54
4.783615,8.456321,1.73819,2,54
1.029507,-10.515334,-7.225700999999999,2,54
1.436521,6.521806,7.25922,2,54
5.09965,-7.742848,0.3830719999999999,2,54
5.66947,-0.1005559999999999,1.733402,2,54
11.827356,10.0748,5.013458999999999,2,54
2.494758,-5.875371,-9.222465,2,54
2.121263,10.108319,7.508217,2,54
8.073248,-6.0333879999999995,-1.575385,2,54
3.950433,7.469909,6.603208,2,54
17.448942000000002,10.170568,0.177171,2,54
8.149863,-9.557653,-2.403778,2,54
4.1707,9.504981,-0.014365,2,54
9.662998,-6.26802,-1.000776,2,54
15.231912,15.179238,4.596867,2,54
15.428235999999998,12.62702,18.679562,2,54
-1.58975,-2.949656,-2.6862939999999997,2,54
0.80924,13.857639,-4.247314,2,54
2.806004,-14.978126,-4.213794999999999,2,54
14.116213,13.201628,4.491523,2,54
39.188293,37.909794,-8.370128999999999,2,54
3.4237089999999997,-10.228029,5.176265,2,55
4.817133999999999,15.169662,-0.445322,2,55
21.662737,19.57978,1.067814,2,55
6.397307,3.739743,0.325611,2,55
-4.122815,8.18817,0.684742,2,55
8.844180999999999,24.679432,9.576807,2,55
4.788404,-6.1243669999999995,-2.494758,2,55
-0.201113,8.226477000000001,6.497864,2,55
4.932055999999999,9.830592,-5.7939680000000005,2,55
14.451401999999998,13.608643,8.427589999999999,2,55
-5.334281,8.025364,-0.866701,2,55
5.295975,-9.868899,-2.111686,2,55
1.551443,13.943829999999998,-3.366248,2,55
-3.4189199999999995,10.793061,-1.23062,2,55
8.173805,-5.085284,-0.512359,2,55
5.564125,13.872005,9.452309,2,55
7.924808,26.163836,8.427589999999999,2,55
0.435745,-8.686164,-4.91769,2,55
0.287304,8.427589999999999,2.7198130000000003,2,55
7.062895,19.306843,-4.3239279999999995,2,55
12.550406,11.008539,-0.675165,2,55
2.705448,9.260772,4.41012,2,55
13.110648,25.292345,8.705316999999999,2,55
-2.432509,0.555455,-3.600879,2,55
-2.509123,5.425261,0.0478839999999999,2,55
9.801862,3.198654,5.506664,2,55
10.812215,21.768082,4.017469999999999,2,55
-3.332729,7.819463000000001,-4.3239279999999995,2,55
7.881711999999999,-5.492298,-1.292869,2,55
1.383849,0.201113,-4.726154,2,55
7.881711999999999,-5.492298,-1.292869,2,56
1.383849,0.201113,-4.726154,2,56
-1.594538,8.729258999999999,5.837064,2,56
10.098742,4.467581,-2.987964,2,56
28.64423,24.842237,12.617443,2,56
-1.541866,11.927913,0.282516,2,56
7.067683000000001,-11.990162,0.402226,2,56
2.092532,16.213532999999998,6.23929,2,56
9.710882000000002,28.050467,3.2561139999999997,2,56
3.8403,-7.536947,0.244209,2,56
24.061728,28.926744,7.747636999999999,2,56
-3.1795,12.023681,1.063026,2,56
7.924808,-11.640609,-2.624045,2,56
6.23929,11.851298,2.657564,2,56
24.147919,27.461494,10.204087,2,56
6.416461,0.143652,-2.226607,2,56
-0.6272810000000001,6.871359,-2.121263,2,56
2.705448,20.39381,2.509123,2,56
3.811569,-7.216124000000001,-7.225700999999999,2,56
-4.443638,5.300763,6.186618,2,56
2.782062,13.326127,-4.443638,2,56
2.96881,11.257536,-0.445322,2,56
-1.790863,7.105991,-5.0421879999999994,2,56
4.678271,-11.654974,1.695095,2,56
6.90009,21.724989,11.171345,2,56
-2.8682540000000003,5.272033,-7.704541000000001,2,56
5.276821,-7.158663000000001,-1.7094599999999998,2,56
14.168885,24.837448,-2.681506,2,56
-3.854665,14.073117000000002,-0.656011,2,56
3.897761,-11.611878,-2.9209259999999997,2,56
-3.246537,8.75799,-3.605668,2,57
-1.345541,5.391742,-1.359906,2,57
17.860744,-3.758896,-3.394978,2,57
18.689138,22.256498,-1.335964,2,57
-0.143652,8.240842,-0.7038949999999999,2,57
0.80924,-20.618866,-1.489193,2,57
15.629349,29.8126,2.30801,2,57
15.528792,30.004135,10.548853,2,57
-0.205901,-14.528016,-1.479617,2,57
14.54717,4.592079,4.553772,2,57
-8.231264999999999,4.299987000000001,1.968034,2,57
18.784906,-11.453861,1.766921,2,57
15.787366,15.883134,-1.628057,2,57
-2.202665,9.428367,-2.020706,2,57
1.915361,-19.531897,-0.71826,2,57
16.70674,25.890898,4.161122,2,57
8.676587,20.915747,-7.613561,2,57
3.701436,-9.892841,-2.5905259999999997,2,57
21.71541,12.157756,-1.565808,2,57
-2.1739349999999997,10.366894,7.70933,2,57
0.167594,-16.788142999999998,0.675165,2,57
11.803414,25.081657,5.525818,2,57
0.670377,15.016433,3.026271,2,57
1.25935,-14.78659,-3.155558,2,57
7.125145,14.135366,8.480263,2,57
23.597251999999997,29.257145,5.238514,2,57
5.358224,2.6862939999999997,1.810017,2,57
8.968679,25.876532,10.82658,2,57
7.091625,23.15193,2.8155810000000003,2,57
-1.25935,-4.865018,-3.634398000000001,2,57
14.116213,13.201628,4.491523,2,58
39.188293,37.909794,-8.370128999999999,2,58
1.115698,-14.877569,2.2313959999999997,2,58
39.188293,33.55234,-6.081272,2,58
0.23942,14.824897,-7.493850999999999,2,58
7.651869,-29.89879,-1.565808,2,58
39.188293,26.829424,-1.647211,2,58
4.850653,27.04969,0.651223,2,58
39.188293,32.374396999999995,-9.174581,2,58
-4.711789,-27.61951,7.043741000000001,2,58
5.971139,5.683835,1.905785,2,58
39.188293,26.642677000000003,1.5466540000000002,2,58
0.5841850000000001,-9.519346,-2.006341,2,58
25.718515,13.503298,3.624822,2,58
1.896208,12.559982000000002,-3.797204,2,58
9.524135,-15.734694,1.355118,2,58
15.868769,9.32781,-3.308787,2,58
12.368446,14.422671,-1.628057,2,58
-5.7939680000000005,-14.144943,-0.565032,2,58
6.646304,16.093823999999998,1.853112,2,58
17.204732999999997,-9.107543,-3.916914,2,58
-1.335964,-8.686164,1.120486,2,58
4.386178,11.314998,5.238514,2,58
5.0374,-10.668563,0.167594,2,58
33.001675,38.39821,-2.2505490000000004,2,58
25.847801,32.508472,-4.386177,2,58
5.090073,-7.311891999999999,-2.240973,2,58
-2.0781669999999997,10.702082,6.335058,2,58
12.50731,-11.137826,1.393425,2,58
0.177171,-11.793838,-6.162675,2,58
-3.490746,0.833182,2.015918,2,59
4.639963,5.420473,0.622492,2,59
-4.285621,-3.016694,-4.941632,2,59
-1.249773,19.393034,-1.403002,2,59
4.946421,9.68694,1.474828,2,59
-9.41879,-5.559336,-3.634398000000001,2,59
0.186748,11.477803,1.091756,2,59
-0.153229,13.541605,-2.992752,2,59
-8.978256,12.100295,-11.405977,2,59
-2.96881,10.548853,0.0478839999999999,2,59
-5.985504,5.104438,9.610326,2,59
1.900996,-6.813898,-3.213019,2,59
-5.90889,7.412449,10.290278,2,59
-11.568783,7.891289,-5.674258,2,59
-7.455544000000001,26.115952,3.1028860000000003,2,59
-4.007893,14.834473999999998,2.03986,2,59
-6.358999,-5.209783,4.017469999999999,2,59
-6.607996000000001,20.446482,-3.720589,2,59
7.316681,3.634398000000001,5.76045,2,59
-1.221043,-0.7852979999999999,-2.72939,2,59
-3.045424,22.811954,-1.465251,2,59
-1.043872,20.508732,-2.48997,2,59
1.268927,-6.373365,6.086061,2,59
2.557007,1.288081,6.081272,2,59
-3.4572269999999996,14.662091,-1.2162540000000002,2,59
-2.437297,-6.5792660000000005,-0.4548979999999999,2,59
-2.863465,8.451532,4.955998,2,59
-18.6221,22.898146,1.551443,2,59
-4.592078,3.29921,-1.086968,2,59
4.0845080000000005,4.3718129999999995,5.913678,2,59
-3.912125,6.880936,-1.843535,2,60
5.832276,-6.282385,-0.033519,2,60
9.572019,25.843014,24.880545,2,60
-2.671929,11.209652,-6.62715,2,60
0.301669,-15.911864,-4.831499,2,60
3.366248,8.796297000000001,9.792285,2,60
21.29403,31.186870000000003,17.396269,2,60
1.714248,-7.230489,-6.220136,2,60
-0.8379709999999999,15.064317,5.406108000000001,2,60
5.267244,19.182344,4.13718,2,60
2.916138,-8.796297000000001,-2.221819,2,60
-3.016694,6.938397,5.176265,2,60
7.929596000000001,14.5759,0.871489,2,60
18.071434,16.816874,-2.4660279999999997,2,60
0.114922,10.903194,3.5721489999999996,2,60
18.631678,28.218061,17.630901,2,60
8.647857,5.487509999999999,0.45011,2,60
-5.961562000000001,1.987187,4.563349,2,60
16.970102,0.225055,-4.0845080000000005,2,60
38.781279999999995,36.037525,39.188293,2,60
3.711013,15.739482,-7.364564,2,60
7.752425,-8.24563,-10.630256,2,60
3.969586,10.994174,7.216124000000001,2,60
-6.2153480000000005,3.0214830000000004,-5.094861,2,60
3.217807,-11.918336,-1.16837,2,60
10.199299,26.647465000000004,9.662998,2,60
10.745177,23.415293,1.144428,2,60
3.744532,-9.035717,-2.892196,2,60
0.766145,21.092916,-0.92895,2,60
23.956383,35.89866,11.669339,2,60
-2.082955,5.530606,0.80924,2,61
6.311116,16.036364000000003,-6.119579,2,61
10.922348,10.084377,-3.380613,2,61
-4.309563,5.8274870000000005,-0.59855,2,61
6.9096660000000005,-12.47858,-0.507571,2,61
2.183512,13.330915,10.496181,2,61
9.471462,19.096153,7.23049,2,61
6.665458,-4.352658,-2.633622,2,61
-0.8379709999999999,6.698977,5.224149,2,61
4.807557,19.110518,2.877831,2,61
3.447651,-6.488286,-6.847417,2,61
-1.187524,7.335833999999999,12.454638,2,61
11.123461,5.425261,11.118672,2,61
9.495404,14.647726,5.4539919999999995,2,61
2.777274,10.314221,-5.468356,2,61
2.9209259999999997,-7.101202000000001,-15.016433,2,61
0.234632,9.083601,12.890382,2,61
10.218452,7.010223,-6.622362,2,61
1.13964,-12.392388,-13.359646,2,61
9.485827,14.863204,6.785168,2,61
18.35395,15.188815,1.11091,2,61
8.848969,-0.421379,-3.849876,2,61
-1.211466,8.264783999999999,3.1076740000000003,2,61
14.815320000000002,3.811569,-1.072602,2,61
28.376078000000003,20.058622,5.185841,2,61
-0.3734949999999999,11.568783,-0.167594,2,61
7.886500999999999,-8.848969,-6.545747,2,61
4.07972,8.853758000000001,13.062764,2,61
-6.349423000000001,-4.501099,7.091625,2,61
-0.268151,9.083601,0.799663,2,61
0.766145,21.092916,-0.92895,2,62
23.956383,35.89866,11.669339,2,62
-0.4548979999999999,-1.513135,2.03986,2,62
-3.4811690000000004,5.722142,-1.431733,2,62
3.5721489999999996,-3.711012,-0.45011,2,62
7.52737,-5.468356,-3.945644,2,62
-10.793061,-6.713341000000001,13.986926,2,62
9.481039,4.841076,11.659762,2,62
0.488417,17.190369,10.500969,2,62
-5.875371,7.613562,2.877831,2,62
12.210428,-6.263232,-1.072602,2,62
-0.71826,7.570466000000001,7.0820490000000005,2,62
18.880674,32.996887,-0.0239419999999999,2,62
3.356671,-11.908759,1.968034,2,62
-1.939303,20.599712,4.065354,2,62
5.990293,21.432894,21.14559,2,62
0.555455,-0.78051,-0.287304,2,62
-1.551443,5.334282,6.349423000000001,2,62
8.221689,3.078944,2.102109,2,62
20.355503,22.902932999999997,11.468226,2,62
-4.501099,11.765107,-0.952892,2,62
0.349553,-12.622231,-0.943315,2,62
5.013458999999999,11.018116,-0.416591,2,62
-5.070919,6.799533,0.483629,2,62
8.159439,-10.175357,0.363919,2,62
1.532289,15.782578,1.6998830000000005,2,62
14.168885,32.24511,3.39019,2,62
3.983951999999999,-1.867477,-1.40779,2,62
-3.3375169999999996,4.716578,-1.6998830000000005,2,62
8.777142999999999,26.015396,3.217807,2,62
-7.536947,6.2057709999999995,8.882488,2,63
9.969456,3.275268,0.306458,2,63
5.889736,-6.775591,-5.291186,2,63
-2.245761,10.529699,-0.866701,2,63
3.0214830000000004,12.943054,-5.60722,2,63
9.409213,7.249642999999999,4.477157,2,63
-6.670246000000001,5.980716,-9.677363,2,63
11.209652,-10.836157,-2.035071,2,63
6.6941880000000005,22.543802,2.288857,2,63
-6.277597,7.034165,-5.731719,2,63
13.345281,2.63841,-4.750096,2,63
26.59958,24.665066,3.466804,2,63
-3.3375169999999996,13.053187,-1.35033,2,63
9.907207,-12.904747,0.469264,2,63
4.577714,11.429919,9.696517,2,63
11.224017,24.851814,5.252879,2,63
2.331953,-7.034164,-6.50744,2,63
31.948227000000003,33.298557,14.542381,2,63
0.354342,16.802507000000002,-0.756568,2,63
7.417236999999999,-7.656657000000001,-3.428497,2,63
1.44131,11.420342,7.479486,2,63
35.45813,33.17885,-2.825158,2,63
5.851429,1.2545620000000002,-4.443638,2,63
-3.227384,7.11078,-6.095637,2,63
17.046717,2.949657,-1.508347,2,63
28.050467,31.953016,10.352529,2,63
-1.010353,7.819463000000001,1.963245,2,63
-14.772224,7.297527,0.617704,2,63
5.7269309999999995,6.799533,-2.336741,2,63
-1.819593,7.125145,-1.594538,2,63
11.123461,5.425261,11.118672,2,64
9.495404,14.647726,5.4539919999999995,2,64
2.777274,10.314221,-5.468356,2,64
2.9209259999999997,-7.101202000000001,-15.016433,2,64
0.234632,9.083601,12.890382,2,64
10.218452,7.010223,-6.622362,2,64
1.13964,-12.392388,-13.359646,2,64
9.485827,14.863204,6.785168,2,64
18.35395,15.188815,1.11091,2,64
8.848969,-0.421379,-3.849876,2,64
-1.211466,8.264783999999999,3.1076740000000003,2,64
14.815320000000002,3.811569,-1.072602,2,64
28.376078000000003,20.058622,5.185841,2,64
-0.3734949999999999,11.568783,-0.167594,2,64
7.886500999999999,-8.848969,-6.545747,2,64
4.07972,8.853758000000001,13.062764,2,64
-6.349423000000001,-4.501099,7.091625,2,64
-0.268151,9.083601,0.799663,2,64
-27.763163,30.894779999999997,-0.052672,2,64
-8.283937,-1.80044,-6.382941000000001,2,64
3.581726,-0.081403,4.295198,2,64
-1.355118,-1.125275,8.034941,2,64
12.220005,19.292477,8.475474,2,64
8.590396,3.112462,3.476381,2,64
-3.332729,5.21936,1.106121,2,64
17.075447,24.789564,10.01734,2,64
1.039084,-2.791639,-7.651869,2,64
-1.632845,6.368576999999999,-6.1243669999999995,2,64
3.3039980000000004,-4.520251999999999,-2.6862939999999997,2,64
20.403387,26.546909999999997,8.384495,2,64
5.090073,-7.311891999999999,-2.240973,2,65
-2.0781669999999997,10.702082,6.335058,2,65
12.50731,-11.137826,1.393425,2,65
0.177171,-11.793838,-6.162675,2,65
-4.6878470000000005,14.178462,0.033519,2,65
27.490225,1.671153,0.943315,2,65
21.543026,21.806389000000003,2.964022,2,65
38.493977,26.886884999999996,15.308526,2,65
4.070143,-4.821922,-2.331952,2,65
-3.236961,5.142745,0.225055,2,65
3.323152,-11.81778,-3.701436,2,65
8.762777999999999,-1.446098,-2.03986,2,65
-0.770933,6.919242999999999,0.536301,2,65
10.453085,-5.315128,-5.774814,2,65
0.220267,19.263746,8.738836000000001,2,65
39.188293,12.732365,25.34023,2,65
12.143391,-1.7477669999999998,-0.5841850000000001,2,65
-0.636858,6.397307,0.612916,2,65
4.256891,-7.0245869999999995,0.488417,2,65
2.8155810000000003,10.261548,1.7046720000000002,2,65
-5.171476,5.707777,-6.114791,2,65
4.592079,-11.535264,-1.6807299999999998,2,65
7.637503999999999,19.891027,3.471593,2,65
3.643975,20.863073,15.59583,2,65
-0.325611,-7.675811,-8.796297000000001,2,65
0.014365,7.718907000000001,3.5099,2,65
20.207062,20.408175,0.483629,2,65
8.90643,-11.439496,0.21069,2,65
1.9919759999999995,15.907076000000002,9.773131,2,65
-0.0957679999999999,16.213532999999998,12.516887,2,65
-5.90889,7.412449,10.290278,2,66
-11.568783,7.891289,-5.674258,2,66
-7.455544000000001,26.115952,3.1028860000000003,2,66
-4.007893,14.834473999999998,2.03986,2,66
-6.358999,-5.209783,4.017469999999999,2,66
-6.607996000000001,20.446482,-3.720589,2,66
7.316681,3.634398000000001,5.76045,2,66
-1.221043,-0.7852979999999999,-2.72939,2,66
-3.045424,22.811954,-1.465251,2,66
-1.043872,20.508732,-2.48997,2,66
1.268927,-6.373365,6.086061,2,66
2.557007,1.288081,6.081272,2,66
-3.4572269999999996,14.662091,-1.2162540000000002,2,66
-2.437297,-6.5792660000000005,-0.4548979999999999,2,66
-2.863465,8.451532,4.955998,2,66
-18.6221,22.898146,1.551443,2,66
-4.592078,3.29921,-1.086968,2,66
4.0845080000000005,4.3718129999999995,5.913678,2,66
-4.649539,2.547431,-5.070919,2,66
-2.437297,18.219875,1.446098,2,66
0.301669,9.184157,4.539407,2,66
-10.687716,-3.845088,-5.583278,2,66
5.492299,17.329231,8.078037,2,66
-5.51624,9.868899,8.762777999999999,2,66
-19.053057,18.904617,-16.342821,2,66
-3.964798000000001,4.046201,-7.010222,2,66
3.950433,3.5194769999999997,4.333505000000001,2,66
-5.329493,-2.4851810000000003,-5.755661,2,66
-15.322891,22.577322,13.618219,2,66
-3.68707,13.034034,2.145205,2,66
-6.890511999999999,11.650186,-2.1787229999999997,2,67
4.462791999999999,6.406884,-1.513135,2,67
-1.37906,-8.552089,-4.0509889999999995,2,67
-7.249642999999999,15.935806,2.8155810000000003,2,67
-24.195803,22.218191,-3.5625720000000003,2,67
-4.544194,2.365471,-7.570465,2,67
4.668694,8.537724,-2.7389669999999997,2,67
-6.196194,1.843535,-4.338293,2,67
-1.608903,-0.440533,2.4085669999999997,2,67
-3.040636,10.697293,2.806004,2,67
-7.603985000000001,-0.909797,-0.560243,2,67
-8.75799,21.89258,0.972046,2,67
0.148441,13.613431,5.612009,2,67
-1.7573439999999998,-4.606444000000001,-3.136404,2,67
-0.6991069999999999,7.967903,2.351106,2,67
-20.029892,18.83758,-7.599196000000001,2,67
-6.066907,-4.783615,-3.816357,2,67
-0.445322,7.656657000000001,-5.0421879999999994,2,67
-14.590265,19.718645,-2.264915,2,67
-5.176264,3.8403,-8.614338,2,67
2.6910830000000003,7.465121000000001,5.3965309999999995,2,67
-4.43885,2.461239,-2.964022,2,67
-14.982914,22.486341,3.811569,2,67
1.177947,11.15698,0.866701,2,67
-7.311891999999999,-4.515464,-2.106897,2,67
-12.885593,13.067553,-0.167594,2,67
3.131616,6.636728,-0.881066,2,67
-8.801085,-3.912125,1.872266,2,67
-9.77792,17.669209,6.574478,2,67
-13.053187,17.089810999999997,11.075577,2,67
-4.458003,-6.938396000000001,-3.730166000000001,2,68
-3.3854010000000003,17.142485,15.313314000000002,2,68
-3.260903,13.306973,14.537593,2,68
-14.532804,22.687456,-1.6998830000000005,2,68
-4.180276,12.679692,-15.840038,2,68
5.449203,3.4572269999999996,1.182736,2,68
1.039084,-1.321599,-13.297397,2,68
-2.236184,20.915747,-6.1243669999999995,2,68
3.035848,3.969586,4.266468,2,68
-7.307103,-5.281609,-1.2545620000000002,2,68
8.116344,14.350845,-2.164358,2,68
0.325611,13.244724,-1.024718,2,68
-11.477803,22.567745,-5.875371,2,68
-5.923255,-0.957681,6.564901,2,68
6.770803,6.081272,-4.539406,2,68
-7.958326,0.8906430000000001,-13.704411,2,68
-8.068458999999999,24.454376,8.978256,2,68
5.305551,9.739613,0.833182,2,68
-8.48984,-7.560889,-1.489193,2,68
-0.4548979999999999,27.437551000000003,12.47858,2,68
1.221043,16.041151,-3.600879,2,68
-14.178462,19.967642,-5.4970870000000005,2,68
-9.188946,14.422671,-8.872911,2,68
5.741296,2.949657,-1.733402,2,68
-7.455544000000001,5.621586,-13.967772,2,68
-1.173159,21.025879,-10.702082,2,68
1.7094599999999998,6.789956,3.505111,2,68
-9.557653,-4.692635,-1.963245,2,68
-0.92895,22.505495,6.947974,2,68
0.186748,15.155296,-0.086191,2,68
-7.311891999999999,-4.515464,-2.106897,2,69
-12.885593,13.067553,-0.167594,2,69
3.131616,6.636728,-0.881066,2,69
-8.801085,-3.912125,1.872266,2,69
-9.77792,17.669209,6.574478,2,69
-13.053187,17.089810999999997,11.075577,2,69
-1.503559,-0.71826,0.7182609999999999,2,69
3.4572269999999996,6.1578870000000006,0.507571,2,69
-2.710236,0.675165,-5.468356,2,69
-5.808333,-3.064578,11.03727,2,69
-0.0239419999999999,7.431602000000001,3.801993,2,69
-4.596867,-0.713472,-1.273715,2,69
-10.67814,27.360937,-2.470816,2,69
-9.394848,19.249382,7.25922,2,69
-4.070143,-4.960786,-3.600879,2,69
-0.6608,10.04607,2.240973,2,69
-8.743625,4.209007,-2.5617959999999997,2,69
-8.034939999999999,-2.226607,0.186748,2,69
5.813122,-2.710236,1.623269,2,69
-5.343858,-0.378284,12.028469,2,69
1.987187,8.623915,1.268927,2,69
-2.255338,11.434708,-3.1795,2,69
0.727837,8.039729,5.899312999999999,2,69
8.264783999999999,-4.726154,-5.391742,2,69
3.5960910000000004,9.701305,1.862689,2,69
-1.953669,10.419566,4.797981,2,69
0.814029,-4.7931919999999995,-4.630386,2,69
-1.537077,11.401189,1.015142,2,69
-0.78051,3.878607,-7.120356,2,69
18.152838,12.53604,5.707777,2,69
3.174712,10.927136,5.281609,2,70
0.45011,-16.630125,0.263362,2,70
8.710106,22.749704,-0.316035,2,70
6.78038,23.00349,6.555324000000001,2,70
0.521936,-9.054871,-5.961562000000001,2,70
0.301669,11.559206,3.447651,2,70
38.29286,35.362359999999995,3.05979,2,70
2.5953150000000003,-18.301277,-1.958457,2,70
0.560243,20.54225,2.992752,2,70
8.236054,23.831884,-1.5610190000000002,2,70
-0.732626,-7.915231,0.086191,2,70
1.067814,11.947066,2.552219,2,70
12.813767,17.496826000000002,-8.283937,2,70
13.01488,9.054871,-5.104438,2,70
-6.258443,7.785944000000001,3.663129,2,70
32.561142,38.848316,1.9919759999999995,2,70
5.645528,0.8906430000000001,-4.256891,2,70
-4.740519,9.782708,3.404555,2,70
10.79785,-2.786851,-0.196325,2,70
17.156848999999998,15.638926,-1.35033,2,70
-5.679046,7.723694999999999,-1.13964,2,70
3.169923,-15.892710999999998,-0.5171479999999999,2,70
5.406108000000001,23.93723,11.568783,2,70
-2.906561,5.046977,-0.905008,2,70
2.437297,-12.038046,-5.961562000000001,2,70
13.718776,30.459034000000003,7.393294999999999,2,70
0.363919,16.122555,-2.4085669999999997,2,70
4.496311,-12.301409,-2.748543,2,70
0.162806,8.145074000000001,5.281609,2,70
34.567485999999995,33.68163,2.5378540000000003,2,70
8.212112,6.277597,30.645782,2,71
9.801862,8.580819,8.916007,2,71
3.5146879999999996,-10.496181,-7.738060000000001,2,71
4.13718,9.763555,2.715025,2,71
7.498639999999999,11.358092999999998,-6.617572999999999,2,71
15.581465,8.633492,0.6608,2,71
6.344635,11.798626,3.931279,2,71
37.593754,27.954699,1.063026,2,71
9.787497,1.115698,2.5617959999999997,2,71
-0.009577,6.813898,4.673482,2,71
4.070143,-8.643068,-4.960786,2,71
12.588713,24.904486,6.890513,2,71
15.26543,23.702597,7.187394,2,71
2.015918,-1.163582,-3.011906,2,71
-2.954445,6.454768,0.588974,2,71
3.2321720000000003,16.199170000000002,-4.592078,2,71
1.091756,-8.671799,-1.891419,2,71
1.968034,10.711658,7.690175999999999,2,71
12.832921,10.94629,-1.134852,2,71
16.347609,8.719683,7.85777,2,71
-2.767697,8.451532,-1.814805,2,71
6.086061,-11.664551,4.501099,2,71
1.929727,15.691598,8.911219000000001,2,71
-1.134852,6.92882,-3.653551999999999,2,71
3.897761,-7.134721000000001,-3.945644,2,71
23.39135,28.91238,19.354727,2,71
11.990162,18.076223,19.311629999999997,2,71
3.744532,-9.907207,-9.423578,2,71
0.995988,11.851298,1.891419,2,71
9.811439,1.862689,1.4604629999999998,2,71
18.933348,5.276821,-9.102755,2,72
-6.258443,5.363012,-7.0245869999999995,2,72
14.097059,-14.149732,-1.953669,2,72
-3.725378,11.018116,6.742072,2,72
28.079196999999997,34.203564,3.394978,2,72
-0.344765,-13.742718,-5.434838,2,72
4.721366000000001,32.32651,12.157756,2,72
1.302446,19.325996,36.913803,2,72
5.12838,-3.936067,-2.073379,2,72
-6.799533,6.502651999999999,1.091756,2,72
9.610326,1.053449,-0.225055,2,72
35.098995,39.188293,-14.791378,2,72
-3.821146,17.3005,9.485827,2,72
-4.850651999999999,10.783484,-2.825158,2,72
20.015526,13.594276999999998,0.42138,2,72
-6.469133,8.125921,1.814805,2,72
17.745823,-6.191406,-10.864887,2,72
-11.568783,3.983951999999999,7.000646000000001,2,72
37.57939,36.549885,4.673482,2,72
8.125921,-1.656788,-1.872266,2,72
-4.61602,6.80911,-7.776367,2,72
21.787235,29.281086,9.179369,2,72
6.301539,-5.315128,-3.615245,2,72
-2.949656,3.921703,1.005565,2,72
4.252103,-1.23062,-0.617704,2,72
13.579912,34.36637,14.432248,2,72
0.306458,16.539145,8.599973,2,72
1.455675,-5.363012,-2.576161,2,72
1.058237,10.34774,-0.71826,2,72
8.939949,5.583278,2.0781669999999997,2,72
1.058237,10.34774,-0.71826,2,73
8.939949,5.583278,2.0781669999999997,2,73
6.80911,-12.382812,-2.116474,2,73
-0.78051,10.19451,4.855441000000001,2,73
20.623653,32.240320000000004,1.082179,2,73
11.93749,13.177685999999998,13.943829999999998,2,73
-5.616797,2.70066,-1.144428,2,73
8.705316999999999,-12.061988,1.264139,2,73
-0.062249,21.4712,9.433155,2,73
9.911995,23.535002,0.675165,2,73
2.662352,-3.581726,-2.896984,2,73
15.796943,26.977865,-4.534618,2,73
-6.569689,12.449849,0.8619129999999999,2,73
15.035586,-7.522581,-3.849876,2,73
-6.4068830000000005,6.914455,2.777274,2,73
21.92131,32.862812,-16.883910999999998,2,73
-1.015141,-1.297657,-4.884171,2,73
-3.969586,5.334282,-1.886631,2,73
-4.865018,-12.066776,-1.939303,2,73
18.497602,32.810140000000004,7.94875,2,73
-0.656011,16.170439000000002,-0.014365,2,73
8.633492,16.002844,-4.491522,2,73
14.753070999999998,8.09719,-3.610456,2,73
-4.644751,6.177041,-4.3574470000000005,2,73
9.394848,-6.890511999999999,-3.615245,2,73
8.700529,7.867347,14.389153,2,73
17.645266,16.922218,14.384364,2,73
-9.126697,-4.812345,-4.759673,2,73
-7.536947,6.2057709999999995,8.882488,2,73
9.969456,3.275268,0.306458,2,73
-3.68707,8.427589999999999,3.524265,2,74
1.412579,-12.421119,-4.831499,2,74
24.554934,32.182858,4.4149080000000005,2,74
-2.94008,7.455544000000001,2.987964,2,74
10.026917,10.127473,-9.931149,2,74
22.036232,15.840038,-1.383848,2,74
-6.311115,6.177041,3.60088,2,74
2.480393,-14.528016,-3.672705,2,74
-3.0693669999999997,19.85272,5.985504,2,74
14.111424,21.86385,6.56969,2,74
1.762132,-7.129933,-12.808979,2,74
18.818426,14.03481,0.014365,2,74
3.174712,10.927136,5.281609,2,74
0.45011,-16.630125,0.263362,2,74
8.710106,22.749704,-0.316035,2,74
6.78038,23.00349,6.555324000000001,2,74
0.521936,-9.054871,-5.961562000000001,2,74
0.301669,11.559206,3.447651,2,74
38.29286,35.362359999999995,3.05979,2,74
2.5953150000000003,-18.301277,-1.958457,2,74
0.560243,20.54225,2.992752,2,74
8.236054,23.831884,-1.5610190000000002,2,74
-0.732626,-7.915231,0.086191,2,74
1.067814,11.947066,2.552219,2,74
12.813767,17.496826000000002,-8.283937,2,74
13.01488,9.054871,-5.104438,2,74
-6.258443,7.785944000000001,3.663129,2,74
32.561142,38.848316,1.9919759999999995,2,74
5.645528,0.8906430000000001,-4.256891,2,74
-4.740519,9.782708,3.404555,2,74
2.892196,15.887922,8.111555000000001,2,75
24.114397,16.917427,13.311762,2,75
-3.4332849999999997,-14.355634,-5.027823000000001,2,75
3.830723,16.175226000000002,8.015787,2,75
18.387468,19.40261,11.693281,2,75
-3.414132,-6.698975999999999,1.484405,2,75
-1.900996,7.096414,0.4548979999999999,2,75
9.653421,-7.091625,-3.1986529999999997,2,75
30.210037,25.670631,11.161768,2,75
1.1683709999999998,15.179238,2.6862939999999997,2,75
5.889736,6.042965000000001,-5.640739,2,75
12.660539,8.456321,6.071696,2,75
-4.434061,7.096414,-0.593762,2,75
8.054095,-9.911995,-8.647857,2,75
5.401319,14.84405,6.952762,2,75
23.846249,26.202143,10.568007,2,75
5.43005,-3.1076740000000003,-5.549759,2,75
-0.622492,7.067683000000001,-1.091756,2,75
4.7931919999999995,17.597382,2.509123,2,75
0.5841850000000001,-9.562442,1.771709,2,75
4.821923,13.306973,3.557784,2,75
7.900866000000001,7.647081,-5.746084,2,75
14.528016,10.850522,6.871359,2,75
-5.3725879999999995,6.086061,-0.818817,2,75
7.149087,-14.614207,-3.423708,2,75
3.447651,13.685257,15.083470000000002,2,75
-0.339977,5.980716,-0.368707,2,75
11.932701,-3.605668,0.349553,2,75
8.212112,6.277597,30.645782,2,75
9.801862,8.580819,8.916007,2,75
0.148441,13.613431,5.612009,2,76
-1.7573439999999998,-4.606444000000001,-3.136404,2,76
-0.6991069999999999,7.967903,2.351106,2,76
-20.029892,18.83758,-7.599196000000001,2,76
-6.066907,-4.783615,-3.816357,2,76
-0.445322,7.656657000000001,-5.0421879999999994,2,76
-14.590265,19.718645,-2.264915,2,76
-5.176264,3.8403,-8.614338,2,76
2.6910830000000003,7.465121000000001,5.3965309999999995,2,76
-4.43885,2.461239,-2.964022,2,76
-14.982914,22.486341,3.811569,2,76
1.177947,11.15698,0.866701,2,76
-7.311891999999999,-4.515464,-2.106897,2,76
-12.885593,13.067553,-0.167594,2,76
3.131616,6.636728,-0.881066,2,76
-8.801085,-3.912125,1.872266,2,76
-9.77792,17.669209,6.574478,2,76
-13.053187,17.089810999999997,11.075577,2,76
-1.503559,-0.71826,0.7182609999999999,2,76
3.4572269999999996,6.1578870000000006,0.507571,2,76
-2.710236,0.675165,-5.468356,2,76
-5.808333,-3.064578,11.03727,2,76
-0.0239419999999999,7.431602000000001,3.801993,2,76
-4.596867,-0.713472,-1.273715,2,76
-10.67814,27.360937,-2.470816,2,76
-9.394848,19.249382,7.25922,2,76
-4.070143,-4.960786,-3.600879,2,76
-0.6608,10.04607,2.240973,2,76
-8.743625,4.209007,-2.5617959999999997,2,76
-8.034939999999999,-2.226607,0.186748,2,76
2.94008,13.570335,12.665327,2,77
11.856087,29.472624,13.910312,2,77
4.065354,-0.02873,-2.183512,2,77
-2.494758,3.859453,-1.953669,2,77
10.663774,-5.564124,1.810017,2,77
2.446874,-11.808203,-5.63595,2,77
-4.663905000000001,5.655105000000001,8.556877,2,77
20.973207,26.522965999999997,7.704541000000001,2,77
1.029507,4.41012,-2.480393,2,77
-3.926491,4.098873,-5.420472,2,77
5.1906300000000005,-3.835511,-6.138733,2,77
3.5003230000000003,31.282639,0.272939,2,77
8.346188,13.996503,28.304253000000003,2,77
0.565032,-6.847417,-3.438074,2,77
3.888184,12.502522,3.083732,2,77
-6.052541000000001,6.023812,-1.489193,2,77
10.352529,-10.175357,3.055001,2,77
-6.469133,21.825542,4.927267,2,77
3.428497,20.594925,8.724471000000001,2,77
1.479617,-5.985504,-6.924030999999999,2,77
2.183512,7.105991,-1.182736,2,77
2.676718,11.587936,7.987057000000001,2,77
12.200851,8.676587,0.746991,2,77
-6.598419,6.66067,-5.401319,2,77
6.344635,-13.450625,1.321599,2,77
28.692114,2.633622,-2.94008,2,77
-5.990292,7.656657000000001,-1.82917,2,77
10.874464,-11.372458,-3.332729,2,77
5.956774,16.366761999999998,11.161768,2,77
33.40869,35.798103000000005,11.750742,2,77
-6.560111999999999,5.085284,0.019154,2,78
-2.442086,-15.097836,-2.413355,2,78
18.842367000000003,36.28173,0.7852979999999999,2,78
-1.249773,16.500837,-0.565032,2,78
1.11091,-9.409213,-4.481945,2,78
6.1387339999999995,13.239935999999998,0.8619129999999999,2,78
24.966735999999997,33.13575,-16.462529999999997,2,78
5.334282,-15.974113,4.960786,2,78
15.950171,13.192051,1.000776,2,78
-4.821922,9.452309,1.2545620000000002,2,78
7.747636999999999,-16.136919,0.3734949999999999,2,78
6.177041,18.095375,2.844312,2,78
15.543157999999998,22.878992,3.854665,2,78
2.882619,-0.694318,-6.17704,2,78
-1.1300629999999998,7.891289,4.606444000000001,2,78
-2.825158,12.306197,-4.410119,2,78
2.844312,-14.221559,-1.11091,2,78
6.0286,11.774684,5.358224,2,78
12.564771,23.90371,15.140931,2,78
1.771709,-1.814805,-2.15957,2,78
-1.474828,6.5792660000000005,3.892972,2,78
9.955091,10.060435,-6.153098,2,78
14.00608,14.829685,-2.54743,2,78
5.966351,12.832921,1.240197,2,78
11.880029,25.756823,19.033903,2,78
3.4189199999999995,-4.491522,-2.576161,2,78
-2.293645,4.505888,-2.207454,2,78
8.365341,9.605537,-1.235408,2,78
24.363396,22.041021,2.4085669999999997,2,78
-4.960786,4.458004,-0.368707,2,78
-4.582502,6.435614,-6.129156,2,79
7.182606,27.978641999999997,-7.359775999999999,2,79
-8.130708,8.331822,-4.410119,2,79
6.952762,-4.922478,-9.054871,2,79
5.655105000000001,10.730812,0.363919,2,79
15.5671,30.401573,-9.466674,2,79
8.710106,-12.440272,-2.097321,2,79
1.795651,18.133684,-3.940856,2,79
6.488287000000001,27.710491,-2.557007,2,79
2.964022,-6.009446,1.61848,2,79
-2.015918,8.250419,-1.197101,2,79
2.911349,16.658855,-6.478708999999999,2,79
8.695741,3.529053,3.696648,2,79
-5.712565000000001,5.616797,2.011129,2,79
7.762002000000001,-9.356541,-0.986411,2,79
2.782062,17.559074,1.910573,2,79
-6.435614,2.873042,-2.384625,2,79
4.721366000000001,-2.619257,-2.264915,2,79
11.429919,26.968288,12.952631,2,79
-0.488417,17.51598,5.233725,2,79
2.8155810000000003,-6.162675,-2.1739349999999997,2,79
-1.393425,6.339846,3.620033,2,79
10.97502,12.962208,-3.849876,2,79
5.525818,8.5473,-2.312799,2,79
-2.293645,12.291832,6.411672,2,79
23.841461,27.629087,10.702082,2,79
3.495535,-0.92895,-4.118027,2,79
-3.2800559999999996,2.853889,0.7038949999999999,2,79
10.998962,13.239935999999998,3.744532,2,79
6.612785000000001,19.019539,17.022774,2,79
8.695741,3.529053,3.696648,2,80
-5.712565000000001,5.616797,2.011129,2,80
7.762002000000001,-9.356541,-0.986411,2,80
2.782062,17.559074,1.910573,2,80
-6.435614,2.873042,-2.384625,2,80
4.721366000000001,-2.619257,-2.264915,2,80
11.429919,26.968288,12.952631,2,80
-0.488417,17.51598,5.233725,2,80
2.8155810000000003,-6.162675,-2.1739349999999997,2,80
-1.393425,6.339846,3.620033,2,80
10.97502,12.962208,-3.849876,2,80
5.525818,8.5473,-2.312799,2,80
-2.293645,12.291832,6.411672,2,80
23.841461,27.629087,10.702082,2,80
3.495535,-0.92895,-4.118027,2,80
-3.2800559999999996,2.853889,0.7038949999999999,2,80
10.998962,13.239935999999998,3.744532,2,80
6.612785000000001,19.019539,17.022774,2,80
-6.191406,6.919242999999999,4.060566000000001,2,80
6.852206,-8.939949,-0.205901,2,80
0.47884,9.203311,-1.570596,2,80
18.100164000000003,21.35149,5.214572,2,80
5.348647,-14.920665,2.317587,2,80
2.7198130000000003,11.228806,-0.0478839999999999,2,80
17.401058,24.636335,16.108189000000003,2,80
2.9209259999999997,5.602432,0.871489,2,80
-1.963245,5.0374,-1.383848,2,80
4.673482,-7.110778999999999,-3.624821,2,80
1.61848,22.266075,0.799663,2,80
10.534488,23.93244,5.09965,2,80
9.911995,15.246277,21.150377,2,81
17.089810999999997,6.880936,6.009446,2,81
-3.754108,7.407660000000001,19.55105,2,81
-16.055517000000002,9.165004,3.011906,2,81
5.956774,-0.114922,-2.39899,2,81
-3.08852,10.012551,6.244078,2,81
2.2601259999999996,9.23683,-6.277597,2,81
13.656527,6.670246000000001,1.642422,2,81
-3.270479,9.208099,-2.753332,2,81
4.630386,-11.204864,-0.536301,2,81
16.338032000000002,29.640217,25.19179,2,81
-4.041412,5.870583,6.540959,2,81
18.004396,25.546135,4.984728,2,81
1.886631,10.577583,10.247183,2,81
-1.632845,6.833052,-3.773262,2,81
0.325611,-12.009315,-4.204218,2,81
4.29041,23.008278,14.188039000000002,2,81
-3.222595,21.073763,13.757082999999998,2,81
6.258444,-6.220136,-3.936067,2,81
-3.610456,12.282255,10.591949,2,81
2.331953,15.543157999999998,1.958457,2,81
10.012551,-13.824121,-2.585738,2,81
2.298434,9.768343,7.771578999999999,2,81
34.830845000000004,30.588322,20.231005,2,81
5.243302,0.201113,-5.765238,2,81
-3.394978,4.716578,-2.097321,2,81
-1.9919759999999995,-8.853758000000001,-10.505757,2,81
-2.255338,20.786457,36.521152,2,81
-2.011129,5.702989,-2.39899,2,81
-4.395754,-5.880159,13.64695,2,81
3.96001,-11.482592,-2.394202,2,82
-6.981492,7.551311999999999,0.560243,2,82
17.956512,27.490225,0.895431,2,82
7.517792999999999,7.058107000000001,-2.135628,2,82
-5.755661,4.836288,-2.954445,2,82
2.628834,-8.360553,0.234632,2,82
8.192958,23.051374,-2.7437549999999997,2,82
8.935161,25.809494,5.530606,2,82
0.086191,-8.566454,2.552219,2,82
21.155167,24.621971,10.46745,2,82
-1.628057,10.141838,0.052672,2,82
5.559336,-12.823344,-1.067814,2,82
2.94008,13.570335,12.665327,2,82
11.856087,29.472624,13.910312,2,82
4.065354,-0.02873,-2.183512,2,82
-2.494758,3.859453,-1.953669,2,82
10.663774,-5.564124,1.810017,2,82
2.446874,-11.808203,-5.63595,2,82
-4.663905000000001,5.655105000000001,8.556877,2,82
20.973207,26.522965999999997,7.704541000000001,2,82
1.029507,4.41012,-2.480393,2,82
-3.926491,4.098873,-5.420472,2,82
5.1906300000000005,-3.835511,-6.138733,2,82
3.5003230000000003,31.282639,0.272939,2,82
8.346188,13.996503,28.304253000000003,2,82
0.565032,-6.847417,-3.438074,2,82
3.888184,12.502522,3.083732,2,82
-6.052541000000001,6.023812,-1.489193,2,82
10.352529,-10.175357,3.055001,2,82
-6.469133,21.825542,4.927267,2,82
-2.504335,14.417882999999998,1.326388,2,83
1.393425,27.844565999999997,8.595184,2,83
4.965575,-5.990292,-1.177947,2,83
-3.040636,7.867347,2.791639,2,83
-5.085284,8.020576,0.531513,2,83
6.7277070000000005,-12.74673,-0.818817,2,83
-1.158794,11.300632,0.225055,2,83
3.696648,22.333113,-0.229843,2,83
4.352659,-9.366117,-4.572925,2,83
-3.768473,6.497864,2.552219,2,83
11.501745,16.567875,-5.420472,2,83
15.423448,15.35641,-1.685518,2,83
-0.335188,10.769119,-4.860229,2,83
8.801085,-8.724471000000001,0.6991069999999999,2,83
4.539407,14.341269,-0.8619129999999999,2,83
-4.036624,6.517017,0.062249,2,83
8.183380999999999,-0.8236049999999999,-8.044516999999999,2,83
6.50744,22.098482,27.988218,2,83
-0.148441,11.563994,8.628703,2,83
8.916007,-10.342952,-8.111555000000001,2,83
4.194642,7.752425,-4.237737,2,83
21.08334,33.274615999999995,-1.766921,2,83
5.746084,4.242526,-6.713341000000001,2,83
-5.822698,5.679047,4.726155,2,83
17.477673,28.242002000000003,8.197747,2,83
1.632846,-1.278504,-3.600879,2,83
-4.544194,5.200207,5.204994999999999,2,83
4.8602300000000005,-16.893488,-4.663905000000001,2,83
22.73055,24.909275,15.217546,2,83
12.785037,25.680208,2.839523,2,83
10.572795,25.536556,-3.907337,2,84
7.489063000000001,1.742979,3.1268279999999997,2,84
8.714894000000001,25.234886,3.078944,2,84
3.945645,18.981232,8.911219000000001,2,84
6.167464,-10.697293,-1.934515,2,84
6.813898,6.066907,0.684742,2,84
39.188293,39.18351,2.542642,2,84
-1.580173,-1.853112,-2.403778,2,84
0.756568,9.500193,1.479617,2,84
17.334020000000002,6.071696,-2.499546,2,84
8.887277000000001,-9.715671,-8.312667999999999,2,84
-2.782062,8.939949,3.586514,2,84
6.1578870000000006,24.507048,9.691729,2,84
8.791509,10.175357,6.933608,2,84
-7.153875,11.693281,-2.03986,2,84
17.022774,-5.286397,-0.086191,2,84
28.711267,24.79914,7.077260000000001,2,84
-3.011906,7.493850999999999,-3.4189199999999995,2,84
23.444023,36.19075,3.725378,2,84
3.586514,-7.139508999999999,-4.22816,2,84
-2.8682540000000003,6.890513,2.858677,2,84
-1.632845,13.680469,-9.366117,2,84
11.506534,15.969325,-2.03986,2,84
-4.577713,4.43885,-1.35033,2,84
-1.843535,-13.905523,-4.252102,2,84
11.712435,24.583664,6.459556,2,84
1.11091,15.883134,-0.311246,2,84
24.598028,18.6221,3.86903,2,84
2.60968,1.479617,-1.517924,2,84
-6.426037,5.372589,1.446098,2,84
6.1578870000000006,24.507048,9.691729,2,85
8.791509,10.175357,6.933608,2,85
-7.153875,11.693281,-2.03986,2,85
17.022774,-5.286397,-0.086191,2,85
28.711267,24.79914,7.077260000000001,2,85
-3.011906,7.493850999999999,-3.4189199999999995,2,85
23.444023,36.19075,3.725378,2,85
3.586514,-7.139508999999999,-4.22816,2,85
-2.8682540000000003,6.890513,2.858677,2,85
-1.632845,13.680469,-9.366117,2,85
11.506534,15.969325,-2.03986,2,85
-4.577713,4.43885,-1.35033,2,85
-1.843535,-13.905523,-4.252102,2,85
11.712435,24.583664,6.459556,2,85
1.11091,15.883134,-0.311246,2,85
24.598028,18.6221,3.86903,2,85
2.60968,1.479617,-1.517924,2,85
-6.426037,5.372589,1.446098,2,85
17.45373,2.140417,5.032612,2,85
18.23424,32.192436,8.049306,2,85
0.976834,13.986926,1.072602,2,85
8.063671000000001,-18.186356,-3.873818,2,85
2.011129,14.772224,7.321469,2,85
-5.645528,7.460333,5.899312999999999,2,85
16.936583,2.183512,-4.046201,2,85
9.902418,12.014104,10.357317,2,85
-8.073248,6.856994,0.215478,2,85
0.282516,-13.742718,-3.0502130000000003,2,85
19.637243,37.94331,8.920795,2,85
1.086968,15.399506,3.356671,2,85
22.73055,24.909275,15.217546,2,86
12.785037,25.680208,2.839523,2,86
3.734955,-5.032612,-3.902549,2,86
-1.666364,10.582372,6.56969,2,86
8.767567,7.402872,-0.881066,2,86
4.5298300000000005,-8.825027,-4.017469999999999,2,86
-1.039083,7.556100999999999,3.040636,2,86
8.030153,11.358092999999998,-2.073379,2,86
14.101848,9.892841,-2.059013,2,86
-6.38773,5.8274870000000005,3.734955,2,86
4.3574470000000005,-11.880029,-5.530606,2,86
4.553772,11.501745,6.833052,2,86
19.85272,22.290018,4.711789,2,86
9.581595,4.3813889999999995,-1.283292,2,86
-6.311115,16.855179999999997,-5.291186,2,86
6.560113,24.463955,1.029507,2,86
1.493982,-7.637503,-1.666364,2,86
-0.6464340000000001,10.754754,1.810017,2,86
14.911088,15.370775,1.010353,2,86
11.128249,7.704541000000001,-9.773131,2,86
-3.184288,9.11712,-2.4851810000000003,2,86
5.3390699999999995,-10.386047,-14.030022,2,86
12.98615,32.89633,14.207192,2,86
-4.592078,5.43005,5.061342,2,86
9.782708,14.403518,-1.441309,2,86
12.943054,11.540052,1.987187,2,86
-4.7788260000000005,6.277597,-1.671153,2,86
4.395755,-9.744401,-4.577713,2,86
7.000646000000001,17.425,15.26543,2,86
17.30529,24.866179,13.431472,2,86
-4.390966000000001,6.2153480000000005,-5.755661,2,87
-2.724601,17.697939,-6.172251999999999,2,87
-7.690175999999999,11.046846,5.013458999999999,2,87
5.305551,-6.833050999999999,2.30801,2,87
12.74673,29.434317,16.558298,2,87
-1.307234,7.211336,2.298434,2,87
10.146626,5.612009,9.758766,2,87
20.681114,19.158401,16.658855,2,87
-3.969586,9.361329,-3.825934,2,87
4.539407,-5.377377,-1.115698,2,87
-0.244209,7.584830999999999,1.1683709999999998,2,87
20.101715,28.869284000000004,1.517924,2,87
7.441178999999999,6.282386,0.244209,2,87
-4.874594,5.78918,-0.153229,2,87
4.572925,-7.302314999999999,-0.593762,2,87
3.744532,-4.333505000000001,-2.346318,2,87
-2.494758,6.339846,1.642422,2,87
10.19451,5.635951,-6.497863,2,87
15.466543,27.56205,3.371036,2,87
-3.533841,11.420342,-0.057461,2,87
8.643068,-10.457873,-3.62961,2,87
3.15077,11.511322,1.891419,2,87
31.976957,31.354465,16.117765,2,87
6.258444,6.871359,-0.770933,2,87
4.338294,21.456835,5.966351,2,87
20.503942,28.510154999999997,10.845734,2,87
2.140417,5.822699,-1.034295,2,87
-5.592855,4.486733999999999,-3.462016,2,87
3.787627,-4.156333999999999,-3.241749,2,87
14.738706,33.64332,2.959233,2,87
-6.449979,3.768474,7.963114999999999,2,88
8.006211,1.872266,-4.592078,2,88
17.822437,16.213532999999998,0.713472,2,88
2.839523,12.483368,-3.2561139999999997,2,88
5.837064,-7.632714999999999,-0.751779,2,88
-3.045424,7.038953,8.815451,2,88
34.318484999999995,26.676195,12.679692,2,88
5.477933999999999,2.624045,-1.929727,2,88
-2.1547810000000003,5.731719,-1.934515,2,88
9.653421,19.416977,2.710236,2,88
3.2561139999999997,-4.122815,-3.476381,2,88
-4.204218,7.690175999999999,4.405330999999999,2,88
7.738060000000001,-1.024718,3.835511,2,88
18.219875,21.566969,17.176003,2,88
1.010353,11.48738,3.098097,2,88
4.7357309999999995,-4.568136,-5.683835,2,88
1.082179,9.643845,3.366248,2,88
1.426944,12.502522,6.042965000000001,2,88
3.131616,-5.3678,-4.477157,2,88
0.507571,8.063671000000001,8.202535000000001,2,88
11.147403,13.618219,2.015918,2,88
14.78659,16.376339,9.184157,2,88
-2.791639,7.632714999999999,-1.115698,2,88
5.731719,-7.264008,-1.288081,2,88
13.594276999999998,4.759673,0.790087,2,88
-4.510676,5.655105000000001,-1.355118,2,88
0.6943189999999999,-8.537724,-2.8155810000000003,2,88
4.788404,17.099388,14.360422,2,88
21.025879,21.375431,33.298557,2,88
5.894525,1.733402,6.440403,2,88
-7.105989999999999,5.3390699999999995,-5.851429,2,89
7.168239999999999,-11.070788,-5.420472,2,89
12.933477,31.16293,4.707001,2,89
-1.886631,5.980716,0.9912,2,89
12.899959,14.743494,-7.460332000000001,2,89
27.2939,20.887016,6.416461,2,89
-5.272032,8.441956,2.853889,2,89
13.843274,-15.95496,2.844312,2,89
4.209007,12.334928,10.055647,2,89
30.401573,39.10689,3.5099,2,89
6.837839999999999,-7.0581059999999995,-4.213794999999999,2,89
6.6510929999999995,27.911603999999997,9.495404,2,89
11.444284,31.742327000000003,10.25676,2,89
1.297657,-5.832275,-1.345541,2,89
-2.7437549999999997,9.509769,-4.654328,2,89
21.825542,-7.910442,2.39899,2,89
33.686417,32.93464,19.067423,2,89
-5.7604489999999995,9.595961,-0.411803,2,89
1.886631,-13.910312,-3.5003230000000003,2,89
7.019799000000001,14.259866,-2.375048,2,89
32.202009999999994,34.304123,11.650186,2,89
-1.091756,-12.909535,-2.4660279999999997,2,89
8.671799,25.19179,12.818556,2,89
7.953538000000001,25.206156,4.505888,2,89
-0.430956,-6.708553,2.58095,2,89
-3.466804,11.678916,2.39899,2,89
12.521675,-0.80924,1.613692,2,89
14.791378,19.934124,-2.164358,2,89
-1.7860740000000002,8.576031,-1.264138,2,89
9.423578,-17.233463,-2.873042,2,89
11.444284,31.742327000000003,10.25676,2,90
1.297657,-5.832275,-1.345541,2,90
-2.7437549999999997,9.509769,-4.654328,2,90
21.825542,-7.910442,2.39899,2,90
33.686417,32.93464,19.067423,2,90
-5.7604489999999995,9.595961,-0.411803,2,90
1.886631,-13.910312,-3.5003230000000003,2,90
7.019799000000001,14.259866,-2.375048,2,90
32.202009999999994,34.304123,11.650186,2,90
-1.091756,-12.909535,-2.4660279999999997,2,90
8.671799,25.19179,12.818556,2,90
7.953538000000001,25.206156,4.505888,2,90
-0.430956,-6.708553,2.58095,2,90
-3.466804,11.678916,2.39899,2,90
12.521675,-0.80924,1.613692,2,90
14.791378,19.934124,-2.164358,2,90
-1.7860740000000002,8.576031,-1.264138,2,90
9.423578,-17.233463,-2.873042,2,90
4.0845080000000005,-2.715025,-1.671153,2,90
-5.659893,8.623915,0.052672,2,90
18.607735,4.161122,0.469264,2,90
26.178202,21.62443,2.322376,2,90
-5.147533,8.542512,-1.058237,2,90
15.734694,-15.251065,2.7198130000000003,2,90
-1.403002,11.33894,15.59583,2,90
37.96725,39.188293,8.925583999999999,2,90
14.092270999999998,15.95496,-2.528277,2,90
9.979033,28.433538,6.143522,2,90
12.502522,28.960264,-18.191145,2,90
10.7356,-14.255076999999998,4.611233,2,90
-4.7788260000000005,6.277597,-1.671153,2,91
4.395755,-9.744401,-4.577713,2,91
7.000646000000001,17.425,15.26543,2,91
17.30529,24.866179,13.431472,2,91
4.496311,-0.45011,-0.579397,2,91
-4.1419690000000005,5.137957,4.113238,2,91
8.786719999999999,28.687325,9.275137,2,91
3.136404,0.794875,-1.537077,2,91
-3.586514,5.588067,5.291186,2,91
14.911088,1.201889,-4.3813889999999995,2,91
18.219875,21.509508,5.094861,2,91
-3.323152,10.424355,1.766921,2,91
4.0270470000000005,-12.368446,-5.070919,2,91
4.07972,8.480263,3.907337,2,91
22.519861,28.093563,-3.294421,2,91
5.904102,-12.622231,-0.670376,2,91
3.902549,16.218323,2.183512,2,91
23.779213,33.451786,2.164359,2,91
4.012682,0.21069,-2.585738,2,91
0.205901,8.202535000000001,-3.624821,2,91
-3.835511,-10.697293,-0.215478,2,91
10.113108,27.983427,2.082955,2,91
0.301669,20.556616,-2.935291,2,91
12.172121,2.585738,-7.445967,2,91
20.135237,30.904356,-2.7437549999999997,2,91
0.23942,15.547946,3.160346,2,91
4.831499,-5.856217,-6.804321000000001,2,91
0.435745,8.044518,0.244209,2,91
3.787627,11.03727,-1.1300629999999998,2,91
14.283808,12.248735,-0.416591,2,91
21.025879,21.375431,33.298557,2,92
5.894525,1.733402,6.440403,2,92
-0.665588,6.473922,-0.038307,2,92
8.853758000000001,-3.509899,0.1915359999999999,2,92
7.11078,0.253785,-0.727837,2,92
-3.371036,5.765238,2.202666,2,92
16.429012,10.462662,-2.322375,2,92
15.064317,23.300371,19.661184,2,92
-2.422932,11.501745,1.527501,2,92
5.544971,-9.241618,-3.864241,2,92
2.03986,7.766791,9.303867,2,92
21.155167,27.686548,5.535394,2,92
3.366248,-0.225055,-4.419696,2,92
-1.781286,2.882619,4.13718,2,92
7.153875,6.052542,1.000776,2,92
4.534618,-10.630256,-3.241749,2,92
0.287304,8.049306,4.855441000000001,2,92
18.59337,20.90617,9.504981,2,92
10.031705,5.923255,9.188946,2,92
-0.790087,6.943185000000001,-3.20823,2,92
3.3375169999999996,-6.382941000000001,-5.12838,2,92
15.768212,22.227768,6.833052,2,92
3.8403,11.975797,5.54976,2,92
4.13718,-7.484274,-0.526724,2,92
23.060951,16.539145,12.186486,2,92
-6.1243669999999995,2.513912,-5.377377,2,92
3.1268279999999997,-12.89517,3.8403,2,92
5.631162000000001,9.964667,4.323929,2,92
13.623008,25.79513,13.01488,2,92
-0.761356,-1.805228,-10.151415,2,92
15.816096,20.527885,2.48997,2,93
8.087613000000001,0.665588,-2.346318,2,93
-5.712565000000001,4.458004,-1.972822,2,93
-1.35033,-12.009315,-0.976834,2,93
7.302314999999999,27.633877,12.038046,2,93
3.864242,18.555063,4.3718129999999995,2,93
2.169147,-7.690175999999999,-2.379836,2,93
20.939688,21.509508,5.506664,2,93
-2.5378540000000003,13.503298,1.417368,2,93
7.680599000000001,-11.324574,-1.728614,2,93
3.1268279999999997,10.970232,1.513135,2,93
29.645006,30.190884000000004,3.964798000000001,2,93
5.861006,2.494758,-3.1076740000000003,2,93
-5.803545,3.849877,-3.3758239999999997,2,93
4.165911,-10.850522,-1.120486,2,93
26.489449,31.881190000000004,16.443376999999998,2,93
1.939303,12.976573,1.077391,2,93
39.188293,38.944084,-6.766014,2,93
-2.293645,-9.864111,-3.308787,2,93
-4.817133999999999,3.39019,-3.706224,2,93
13.182474,-1.5466540000000002,2.269703,2,93
18.789696,19.40261,-4.999093,2,93
-4.13718,8.327033,-0.062249,2,93
5.568912999999999,-16.328454999999998,-7.699753,2,93
10.108319,17.132908,1.067814,2,93
18.033127,34.538754,1.5466540000000002,2,93
10.199299,-10.25676,7.125145,2,93
31.019278000000003,28.385654,8.60955,2,93
1.604115,17.185579999999998,-7.479486,2,93
5.813122,-13.876793,-4.22816,2,93
13.101071,9.945514,7.704541000000001,2,94
5.324705000000001,15.744270000000002,5.664682,2,94
-6.493075,6.636728,-1.417367,2,94
6.081272,-7.125144000000001,-2.5953150000000003,2,94
0.138864,17.075447,7.508217,2,94
4.592079,22.160729999999997,2.092532,2,94
-1.134852,-5.57849,-2.75812,2,94
-0.488417,7.752425,4.486733999999999,2,94
14.762648,23.659502,14.69561,2,94
11.520899,-5.664681,3.744532,2,94
2.212242,20.015526,8.882488,2,94
12.588713,25.82386,11.793838,2,94
2.102109,1.623269,-3.323152,2,94
-5.085284,7.910442999999999,4.836288,2,94
7.134722,1.115698,-4.7788260000000005,2,94
2.734178,24.095245,13.982138,2,94
1.628057,13.613431,3.308787,2,94
8.259996000000001,15.279796,-16.060305,2,94
1.134852,13.570335,9.337387,2,94
-5.530606,6.92882,-0.713472,2,94
7.086836999999999,-5.822698,-0.885855,2,94
1.321599,9.500193,7.637503999999999,2,94
22.4624,24.885332,22.826319,2,94
6.177041,6.861782000000001,-4.22816,2,94
-3.275268,5.60722,1.412579,2,94
10.960655,19.560625,0.493206,2,94
4.778827,0.814029,-1.039083,2,94
-3.921702,9.318233,8.121132000000001,2,94
-4.390966000000001,6.2153480000000005,-5.755661,2,94
-2.724601,17.697939,-6.172251999999999,2,94
6.742072,-16.548721,-1.201889,2,95
-1.278504,25.589228,8.944737,2,95
9.653421,25.905262,9.399636,2,95
6.172251999999999,-3.3854010000000003,-3.1028849999999997,2,95
0.512359,8.259996000000001,-0.301669,2,95
22.419304,11.247959,6.6894,2,95
13.637373,20.72421,-2.863465,2,95
3.926491,6.852206,2.585738,2,95
26.355371,32.858025,8.259996000000001,2,95
2.063802,-1.345541,-1.723825,2,95
-0.1292869999999999,5.329493,1.244985,2,95
14.432248,2.585738,-1.522712,2,95
22.117635999999997,18.420988,-3.993528,2,95
-6.746860000000001,8.39886,-4.232949,2,95
6.416461,-13.690045,-5.070919,2,95
0.675165,-1.900996,-2.806004,2,95
-3.672705,9.045294,0.938527,2,95
13.354857,5.525818,-0.80924,2,95
13.383588,22.826319,2.116475,2,95
-3.763685,6.105214,-0.5841850000000001,2,95
6.5792660000000005,-12.785037,-8.303091,2,95
8.48984,23.439234,11.372458,2,95
8.312667999999999,21.729774,7.809886,2,95
9.605537,7.85777,-2.336741,2,95
16.859968,13.962984,-5.272032,2,95
-3.758896,12.933477,3.5625720000000003,2,95
3.5003230000000003,-9.179369,-6.904877000000001,2,95
5.042189,22.91251,7.0820490000000005,2,95
9.509769,18.526332999999997,3.4189199999999995,2,95
5.856218,-6.813898,-6.71813,2,95
6.488287000000001,6.105214,-6.272808,2,96
18.83279,16.017210000000002,-11.018116,2,96
-8.169016000000001,-1.532289,2.614468,2,96
26.575640000000003,32.57072,4.936844000000001,2,96
3.5003230000000003,-2.5905259999999997,-4.965574,2,96
-3.691859,6.124368,-3.811569,2,96
2.298434,-8.676587,-2.327164,2,96
10.94629,28.031313,13.560759,2,96
-1.953669,15.342045,6.804322,2,96
5.492299,-11.956643,-16.510414,2,96
2.475605,6.871359,2.5617959999999997,2,96
-8.331821000000001,6.052542,-1.40779,2,96
6.742072,-16.548721,-1.201889,2,96
-1.278504,25.589228,8.944737,2,96
9.653421,25.905262,9.399636,2,96
6.172251999999999,-3.3854010000000003,-3.1028849999999997,2,96
0.512359,8.259996000000001,-0.301669,2,96
22.419304,11.247959,6.6894,2,96
13.637373,20.72421,-2.863465,2,96
3.926491,6.852206,2.585738,2,96
26.355371,32.858025,8.259996000000001,2,96
2.063802,-1.345541,-1.723825,2,96
-0.1292869999999999,5.329493,1.244985,2,96
14.432248,2.585738,-1.522712,2,96
22.117635999999997,18.420988,-3.993528,2,96
-6.746860000000001,8.39886,-4.232949,2,96
6.416461,-13.690045,-5.070919,2,96
0.675165,-1.900996,-2.806004,2,96
-3.672705,9.045294,0.938527,2,96
13.354857,5.525818,-0.80924,2,96
1.192313,16.309301,-1.04866,2,97
3.241749,-8.159439,-0.21069,2,97
3.711013,12.239159,1.584962,2,97
5.157111,7.742849,-6.220136,2,97
2.48997,-7.307103,-8.121132000000001,2,97
3.787627,10.261548,5.118803,2,97
11.161768,5.291186,-4.625597,2,97
23.822308,9.591172,-0.5171479999999999,2,97
-1.604115,8.796297000000001,1.551443,2,97
5.765238,-11.913548,0.42138,2,97
10.82658,16.73547,-0.052672,2,97
39.188293,36.061466,11.923124,2,97
4.065354,-16.73547,-6.253655,2,97
20.432117,22.457611,9.768343,2,97
11.468226,27.571627000000003,5.3965309999999995,2,97
3.5386300000000004,-4.003105000000001,-1.599327,2,97
-0.742202,8.552089,4.022259,2,97
5.477933999999999,-11.48738,-2.499546,2,97
27.509378,26.12074,18.20551,2,97
6.038176999999999,21.978771,2.7198130000000003,2,97
18.555063,-1.7046720000000002,-3.4332849999999997,2,97
37.483624,17.798496,23.190239,2,97
4.390966000000001,16.405070000000002,5.674258,2,97
3.155558,-11.592725,-1.16837,2,97
5.152323,9.260772,8.255207,2,97
33.092655,20.977995,14.762648,2,97
16.601395,-1.6998830000000005,-3.639186,2,97
-4.941632,6.675035,-3.342306,2,97
19.292477,22.419304,15.006856,2,97
4.7453080000000005,-3.3279400000000003,1.417368,2,97
1.604115,17.185579999999998,-7.479486,2,98
5.813122,-13.876793,-4.22816,2,98
-0.162806,10.730812,2.6862939999999997,2,98
29.27151,29.999348,-18.847157,2,98
8.590396,0.612916,-18.406622,2,98
-2.566584,6.876148,-2.7198130000000003,2,98
-2.8491,-13.88637,-2.504335,2,98
2.102109,-2.0254950000000003,-1.929727,2,98
-4.611232,4.43885,2.403779,2,98
7.182606,-0.23942,-0.493206,2,98
36.16681,32.158916,4.481946,2,98
-6.224924,11.166556,-5.133168,2,98
2.901773,-10.994174,5.12838,2,98
-4.151545,6.799533,-0.54109,2,98
3.098097,10.79785,-4.553771,2,98
10.228029,-11.592725,-0.23942,2,98
4.3574470000000005,12.239159,2.724602,2,98
24.492683,18.7466,9.706094,2,98
8.48984,5.12838,-4.295198,2,98
-0.962469,6.799533,-3.979163,2,98
3.663129,-10.55843,-0.967257,2,98
9.23683,9.241618,10.812215,2,98
32.249897,19.077,5.157111,2,98
-3.811569,-11.085154,-7.211335000000001,2,98
-0.579397,9.830592,8.2169,2,98
3.485958,7.560889,4.481946,2,98
4.276045,-4.625597,-0.833182,2,98
9.715671,8.690952000000001,11.343728,2,98
13.374011,5.506664,-4.553771,2,98
19.488802,8.552089,25.388115,2,98
12.962208,13.575124,6.291962,2,99
-4.146757,11.903971,1.939303,2,99
0.162806,-13.522451,-4.912902,2,99
6.224925,13.340492,7.532159,2,99
22.170307,21.519085,12.435484,2,99
2.470816,-8.882488,6.229712999999999,2,99
18.373104,16.534357,13.31655,2,99
2.839523,13.168109,1.6519990000000002,2,99
4.788404,-15.442601000000002,2.312799,2,99
4.209007,13.335704000000002,6.732496,2,99
13.096283,21.519085,11.779472,2,99
3.3375169999999996,-0.967257,-2.5378540000000003,2,99
-3.821146,6.56969,1.513135,2,99
1.6807299999999998,-3.65834,-1.838747,2,99
6.4787099999999995,-15.725117,-2.643199,2,99
6.986281,12.823344,11.142614,2,99
12.569559,25.206156,18.717869,2,99
7.326257000000001,3.77805,-3.308787,2,99
-3.404555,7.043741000000001,9.591172,2,99
18.626888,17.832014,5.372589,2,99
17.827227,18.813637,11.985373,2,99
-2.5905259999999997,9.768343,3.495535,2,99
7.651869,-12.990938,-1.163582,2,99
1.82917,12.962208,19.584570000000003,2,99
-6.449979,3.768474,7.963114999999999,2,99
8.006211,1.872266,-4.592078,2,99
17.822437,16.213532999999998,0.713472,2,99
2.839523,12.483368,-3.2561139999999997,2,99
5.837064,-7.632714999999999,-0.751779,2,99
-3.045424,7.038953,8.815451,2,99
-8.169016000000001,-1.532289,2.614468,2,100
26.575640000000003,32.57072,4.936844000000001,2,100
3.5003230000000003,-2.5905259999999997,-4.965574,2,100
-3.691859,6.124368,-3.811569,2,100
2.298434,-8.676587,-2.327164,2,100
10.94629,28.031313,13.560759,2,100
-1.953669,15.342045,6.804322,2,100
5.492299,-11.956643,-16.510414,2,100
2.475605,6.871359,2.5617959999999997,2,100
-8.331821000000001,6.052542,-1.40779,2,100
6.742072,-16.548721,-1.201889,2,100
-1.278504,25.589228,8.944737,2,100
9.653421,25.905262,9.399636,2,100
6.172251999999999,-3.3854010000000003,-3.1028849999999997,2,100
0.512359,8.259996000000001,-0.301669,2,100
22.419304,11.247959,6.6894,2,100
13.637373,20.72421,-2.863465,2,100
3.926491,6.852206,2.585738,2,100
26.355371,32.858025,8.259996000000001,2,100
2.063802,-1.345541,-1.723825,2,100
-0.1292869999999999,5.329493,1.244985,2,100
14.432248,2.585738,-1.522712,2,100
22.117635999999997,18.420988,-3.993528,2,100
-6.746860000000001,8.39886,-4.232949,2,100
6.416461,-13.690045,-5.070919,2,100
0.675165,-1.900996,-2.806004,2,100
-3.672705,9.045294,0.938527,2,100
13.354857,5.525818,-0.80924,2,100
13.383588,22.826319,2.116475,2,100
-3.763685,6.105214,-0.5841850000000001,2,100
-3.174711,5.635951,4.836288,2,101
10.615891,9.730036,0.45011,2,101
12.962208,13.575124,6.291962,2,101
-4.146757,11.903971,1.939303,2,101
0.162806,-13.522451,-4.912902,2,101
6.224925,13.340492,7.532159,2,101
22.170307,21.519085,12.435484,2,101
2.470816,-8.882488,6.229712999999999,2,101
18.373104,16.534357,13.31655,2,101
2.839523,13.168109,1.6519990000000002,2,101
4.788404,-15.442601000000002,2.312799,2,101
4.209007,13.335704000000002,6.732496,2,101
13.096283,21.519085,11.779472,2,101
3.3375169999999996,-0.967257,-2.5378540000000003,2,101
-3.821146,6.56969,1.513135,2,101
1.6807299999999998,-3.65834,-1.838747,2,101
6.4787099999999995,-15.725117,-2.643199,2,101
6.986281,12.823344,11.142614,2,101
12.569559,25.206156,18.717869,2,101
7.326257000000001,3.77805,-3.308787,2,101
-3.404555,7.043741000000001,9.591172,2,101
18.626888,17.832014,5.372589,2,101
17.827227,18.813637,11.985373,2,101
-2.5905259999999997,9.768343,3.495535,2,101
7.651869,-12.990938,-1.163582,2,101
1.82917,12.962208,19.584570000000003,2,101
-6.449979,3.768474,7.963114999999999,2,101
8.006211,1.872266,-4.592078,2,101
17.822437,16.213532999999998,0.713472,2,101
2.839523,12.483368,-3.2561139999999997,2,101
10.199299,-10.25676,7.125145,2,102
31.019278000000003,28.385654,8.60955,2,102
1.604115,17.185579999999998,-7.479486,2,102
5.813122,-13.876793,-4.22816,2,102
-0.162806,10.730812,2.6862939999999997,2,102
29.27151,29.999348,-18.847157,2,102
8.590396,0.612916,-18.406622,2,102
-2.566584,6.876148,-2.7198130000000003,2,102
-2.8491,-13.88637,-2.504335,2,102
2.102109,-2.0254950000000003,-1.929727,2,102
-4.611232,4.43885,2.403779,2,102
7.182606,-0.23942,-0.493206,2,102
36.16681,32.158916,4.481946,2,102
-6.224924,11.166556,-5.133168,2,102
2.901773,-10.994174,5.12838,2,102
-4.151545,6.799533,-0.54109,2,102
3.098097,10.79785,-4.553771,2,102
10.228029,-11.592725,-0.23942,2,102
4.3574470000000005,12.239159,2.724602,2,102
24.492683,18.7466,9.706094,2,102
8.48984,5.12838,-4.295198,2,102
-0.962469,6.799533,-3.979163,2,102
3.663129,-10.55843,-0.967257,2,102
9.23683,9.241618,10.812215,2,102
32.249897,19.077,5.157111,2,102
-3.811569,-11.085154,-7.211335000000001,2,102
-0.579397,9.830592,8.2169,2,102
3.485958,7.560889,4.481946,2,102
4.276045,-4.625597,-0.833182,2,102
9.715671,8.690952000000001,11.343728,2,102
3.711013,12.239159,1.584962,2,103
5.157111,7.742849,-6.220136,2,103
2.48997,-7.307103,-8.121132000000001,2,103
3.787627,10.261548,5.118803,2,103
11.161768,5.291186,-4.625597,2,103
23.822308,9.591172,-0.5171479999999999,2,103
-1.604115,8.796297000000001,1.551443,2,103
5.765238,-11.913548,0.42138,2,103
10.82658,16.73547,-0.052672,2,103
39.188293,36.061466,11.923124,2,103
4.065354,-16.73547,-6.253655,2,103
20.432117,22.457611,9.768343,2,103
11.468226,27.571627000000003,5.3965309999999995,2,103
3.5386300000000004,-4.003105000000001,-1.599327,2,103
-0.742202,8.552089,4.022259,2,103
5.477933999999999,-11.48738,-2.499546,2,103
27.509378,26.12074,18.20551,2,103
6.038176999999999,21.978771,2.7198130000000003,2,103
18.555063,-1.7046720000000002,-3.4332849999999997,2,103
37.483624,17.798496,23.190239,2,103
4.390966000000001,16.405070000000002,5.674258,2,103
3.155558,-11.592725,-1.16837,2,103
5.152323,9.260772,8.255207,2,103
33.092655,20.977995,14.762648,2,103
16.601395,-1.6998830000000005,-3.639186,2,103
-4.941632,6.675035,-3.342306,2,103
19.292477,22.419304,15.006856,2,103
4.7453080000000005,-3.3279400000000003,1.417368,2,103
-3.983951,5.3390699999999995,-0.004788,2,103
5.8274870000000005,-8.379706,-1.9919759999999995,2,103
-6.493075,6.636728,-1.417367,2,104
6.081272,-7.125144000000001,-2.5953150000000003,2,104
0.138864,17.075447,7.508217,2,104
4.592079,22.160729999999997,2.092532,2,104
-1.134852,-5.57849,-2.75812,2,104
-0.488417,7.752425,4.486733999999999,2,104
14.762648,23.659502,14.69561,2,104
11.520899,-5.664681,3.744532,2,104
2.212242,20.015526,8.882488,2,104
12.588713,25.82386,11.793838,2,104
2.102109,1.623269,-3.323152,2,104
-5.085284,7.910442999999999,4.836288,2,104
7.134722,1.115698,-4.7788260000000005,2,104
