accelerometer_X,accelerometer_Y,accelerometer_Z,name_id,file_id
3.907337,-4.984728,-3.821146,3,0
0.354342,-9.56723,-5.7700260000000005,3,0
0.9912,-10.290278,-5.099648999999999,3,0
-2.389413,-12.220005,-6.330269,3,0
-1.7860740000000002,-18.737022,6.244078,3,0
4.644751,-11.018116,-1.04866,3,0
-2.269703,-2.782062,2.39899,3,0
1.479617,-9.251195,-0.857124,3,0
5.152323,-11.702858,-2.27928,3,0
1.637634,-22.720974,-10.491392,3,0
-2.346318,-3.270479,1.063026,3,0
-1.685518,-7.580042,-1.623269,3,0
-1.80044,-7.465121000000001,-3.0693669999999997,3,0
-0.124498,-12.559982000000002,6.7516490000000005,3,0
1.7525560000000002,-17.501614,-3.801992,3,0
2.331953,-9.744401,-7.407660000000001,3,0
3.222596,-8.920795,-3.08852,3,0
-3.4572269999999996,-2.715025,0.148441,3,0
2.264915,-9.931149,-4.659116,3,0
0.9912,-10.903194,-8.183380999999999,3,0
2.226608,-8.044516999999999,-2.341529,3,0
-1.647211,-11.851298,6.775591,3,0
8.39886,-13.771448,-2.566584,3,0
2.494758,-10.328587,-8.690952000000001,3,0
0.8236049999999999,-7.383717999999999,-3.5960910000000004,3,0
-6.224924,-12.23437,-26.230873,3,0
1.273715,-6.502651,-3.5721489999999996,3,0
0.7230489999999999,-6.871359,-4.079719,3,0
2.226608,-7.575253999999999,-12.555194,3,0
3.284845,-11.96622,-3.892972,3,0
-3.318364,-8.346186999999999,1.551443,3,1
2.236184,-10.175357,3.4237089999999997,3,1
-9.528923,-19.484013,4.113238,3,1
-3.864241,-19.670761,-13.962984,3,1
1.963245,-10.242394,-2.3606830000000003,3,1
3.878607,-11.48738,-12.65575,3,1
3.026271,-8.432379,-7.244853999999999,3,1
-5.023035,-16.223110000000002,-12.464214,3,1
-0.4548979999999999,-14.882357999999998,-6.933608,3,1
9.035717,-13.206416,12.617443,3,1
-1.273715,-5.353435,-0.641646,3,1
-0.794875,-9.160215,-0.1819589999999999,3,1
2.336741,-11.722012,-1.321599,3,1
-6.1578870000000006,-1.489193,-0.54109,3,1
-6.904877000000001,-20.159178,-0.866701,3,1
-1.958457,-8.978256,-4.625597,3,1
0.196325,-2.643199,-0.114922,3,1
-1.728614,-4.9943040000000005,-1.192312,3,1
0.746991,-5.238512999999999,-1.043872,3,1
-1.197101,-3.68707,2.882619,3,1
-0.344765,-9.696517,0.679953,3,1
-5.386954,-16.323667999999998,4.266468,3,1
-3.787627,-8.633492,0.895431,3,1
-2.30801,-13.445837,-2.834735,3,1
-0.545878,-3.653551999999999,6.670246000000001,3,1
2.844312,-10.486604,-1.580173,3,1
2.566584,-10.323798,-1.16837,3,1
2.63841,-7.168239999999999,-0.71826,3,1
3.907337,-4.984728,-3.821146,3,1
0.354342,-9.56723,-5.7700260000000005,3,1
5.923255,-18.195932,10.486604,3,2
2.5953150000000003,-7.762002000000001,-10.606314,3,2
-6.287173,-20.60929,-38.08696,3,2
1.4987700000000002,-14.719551999999998,-5.9759269999999995,3,2
4.936844000000001,-19.177555,17.492037,3,2
5.0086699999999995,-9.591172,-1.522712,3,2
0.21069,-4.065354,1.5370780000000002,3,2
-0.47884,-12.210428,-0.301669,3,2
-0.153229,-10.213664,-1.7525560000000002,3,2
0.6272810000000001,-7.627927000000001,-3.270479,3,2
1.177947,-5.415684,-2.059013,3,2
3.466804,-5.406107,-2.633622,3,2
0.057461,-6.445191,-3.0693669999999997,3,2
5.88016,-6.900089,-3.509899,3,2
4.774039,-9.251195,-2.600103,3,2
0.766145,-4.089296,-0.833182,3,2
5.865794,-9.840169,-1.23062,3,2
-1.446098,-4.903325,-0.512359,3,2
2.600103,-7.929596000000001,0.5841850000000001,3,2
-1.766921,-5.295974,0.766145,3,2
0.430956,-7.699753,-0.579397,3,2
0.8475469999999999,-9.337387,-3.797204,3,2
-1.8579,-7.623138000000001,9.021352,3,2
0.272939,-11.860875,-2.9209259999999997,3,2
2.499547,-7.843405000000001,-3.620033,3,2
-4.76925,-9.648633,-12.382812,3,2
2.475605,-9.993398,-6.62715,3,2
2.748544,-6.9096660000000005,-3.39019,3,2
1.264139,-7.517792999999999,0.493206,3,2
-1.086968,-5.717354,2.499547,3,2
-1.101333,-13.939042,-0.948104,3,3
1.532289,-6.2153480000000005,-5.928043,3,3
2.652776,-5.865794,-3.227384,3,3
-0.737414,-3.86903,-1.4987700000000002,3,3
3.677494,-6.8761470000000005,-2.782062,3,3
0.612916,-3.744531,-0.507571,3,3
0.052672,-8.403648,-4.185065,3,3
-1.843535,-3.892972,-1.929727,3,3
0.665588,-6.809108999999999,-1.939303,3,3
-2.011129,-4.232949,-0.919373,3,3
2.432509,-10.304645,-1.671153,3,3
0.588974,-5.999869,-2.327164,3,3
1.431733,-8.27436,-1.73819,3,3
-1.7860740000000002,-7.996633,-3.3279400000000003,3,3
0.885855,-11.468226,5.544971,3,3
-0.770933,-21.74414,-3.605668,3,3
6.670246000000001,-13.206416,-4.611232,3,3
0.675165,-17.343597,-7.225700999999999,3,3
7.771578999999999,-8.580819,12.650962,3,3
3.873819,-6.162675,-6.210559,3,3
3.193865,-12.392388,2.5953150000000003,3,3
4.9512089999999995,-25.828648,-7.991845,3,3
7.484275,-14.887146,2.973599,3,3
4.797981,-19.560625,-9.227253,3,3
-0.933739,-9.188946,10.007763,3,3
4.347871,-7.354987,-6.277597,3,3
5.061342,-13.785813,10.333375,3,3
2.499547,-4.788403,0.019154,3,3
5.923255,-18.195932,10.486604,3,3
2.5953150000000003,-7.762002000000001,-10.606314,3,3
1.264139,-7.517792999999999,0.493206,3,4
-1.086968,-5.717354,2.499547,3,4
-2.614468,-8.508992999999998,-0.071826,3,4
-1.522712,-16.82645,-2.791639,3,4
4.31914,-13.091495,-0.411803,3,4
0.430956,-15.255854,-5.688623000000001,3,4
5.061342,-14.508862,-22.663513,3,4
2.82037,-9.710882000000002,-3.806781,3,4
2.753332,-11.559206,-10.630256,3,4
0.9912,-8.935161,-0.1723829999999999,3,4
-3.600879,-3.524265,0.957681,3,4
-2.082955,-11.808203,0.229843,3,4
-1.8579,-4.3766,2.327164,3,4
-2.130839,-12.421119,-0.2585739999999999,3,4
-6.478708999999999,-20.39381,1.177947,3,4
0.35913,-22.716187,7.800309,3,4
3.380613,-11.070788,-2.403778,3,4
2.806004,-10.754754,3.672706,3,4
-6.478708999999999,-22.160729999999997,0.162806,3,4
5.272033,-25.546135,-8.652645,3,4
-2.264915,-17.348385,-2.834735,3,4
-7.426813,1.345541,-2.6862939999999997,3,4
-0.694318,-15.030798,-5.501875,3,4
-0.632069,-14.848839000000002,-11.224017,3,4
3.782839,-11.597513,-2.94008,3,4
-0.507571,-5.104438,-2.111686,3,4
1.369483,-4.520251999999999,-2.863465,3,4
2.494758,-11.36767,-2.255338,3,4
2.054225,-5.640739,1.56102,3,4
-2.662352,-8.145074000000001,-5.1666870000000005,3,4
-2.614468,-8.508992999999998,-0.071826,3,5
-1.522712,-16.82645,-2.791639,3,5
4.31914,-13.091495,-0.411803,3,5
0.430956,-15.255854,-5.688623000000001,3,5
5.061342,-14.508862,-22.663513,3,5
2.82037,-9.710882000000002,-3.806781,3,5
2.753332,-11.559206,-10.630256,3,5
0.9912,-8.935161,-0.1723829999999999,3,5
-3.600879,-3.524265,0.957681,3,5
-2.082955,-11.808203,0.229843,3,5
-1.8579,-4.3766,2.327164,3,5
-2.130839,-12.421119,-0.2585739999999999,3,5
-6.478708999999999,-20.39381,1.177947,3,5
0.35913,-22.716187,7.800309,3,5
3.380613,-11.070788,-2.403778,3,5
2.806004,-10.754754,3.672706,3,5
-6.478708999999999,-22.160729999999997,0.162806,3,5
5.272033,-25.546135,-8.652645,3,5
-2.264915,-17.348385,-2.834735,3,5
-7.426813,1.345541,-2.6862939999999997,3,5
-0.694318,-15.030798,-5.501875,3,5
-0.632069,-14.848839000000002,-11.224017,3,5
3.782839,-11.597513,-2.94008,3,5
-0.507571,-5.104438,-2.111686,3,5
1.369483,-4.520251999999999,-2.863465,3,5
2.494758,-11.36767,-2.255338,3,5
2.054225,-5.640739,1.56102,3,5
-2.662352,-8.145074000000001,-5.1666870000000005,3,5
-3.318364,-8.346186999999999,1.551443,3,5
2.236184,-10.175357,3.4237089999999997,3,5
2.652776,-5.865794,-3.227384,3,6
-0.737414,-3.86903,-1.4987700000000002,3,6
3.677494,-6.8761470000000005,-2.782062,3,6
0.612916,-3.744531,-0.507571,3,6
0.052672,-8.403648,-4.185065,3,6
-1.843535,-3.892972,-1.929727,3,6
0.665588,-6.809108999999999,-1.939303,3,6
-2.011129,-4.232949,-0.919373,3,6
2.432509,-10.304645,-1.671153,3,6
0.588974,-5.999869,-2.327164,3,6
1.431733,-8.27436,-1.73819,3,6
-1.7860740000000002,-7.996633,-3.3279400000000003,3,6
0.885855,-11.468226,5.544971,3,6
-0.770933,-21.74414,-3.605668,3,6
6.670246000000001,-13.206416,-4.611232,3,6
0.675165,-17.343597,-7.225700999999999,3,6
7.771578999999999,-8.580819,12.650962,3,6
3.873819,-6.162675,-6.210559,3,6
3.193865,-12.392388,2.5953150000000003,3,6
4.9512089999999995,-25.828648,-7.991845,3,6
7.484275,-14.887146,2.973599,3,6
4.797981,-19.560625,-9.227253,3,6
-0.933739,-9.188946,10.007763,3,6
4.347871,-7.354987,-6.277597,3,6
5.061342,-13.785813,10.333375,3,6
2.499547,-4.788403,0.019154,3,6
5.923255,-18.195932,10.486604,3,6
2.5953150000000003,-7.762002000000001,-10.606314,3,6
-6.287173,-20.60929,-38.08696,3,6
1.4987700000000002,-14.719551999999998,-5.9759269999999995,3,6
-6.287173,-20.60929,-38.08696,3,7
1.4987700000000002,-14.719551999999998,-5.9759269999999995,3,7
4.936844000000001,-19.177555,17.492037,3,7
5.0086699999999995,-9.591172,-1.522712,3,7
0.21069,-4.065354,1.5370780000000002,3,7
-0.47884,-12.210428,-0.301669,3,7
-0.153229,-10.213664,-1.7525560000000002,3,7
0.6272810000000001,-7.627927000000001,-3.270479,3,7
1.177947,-5.415684,-2.059013,3,7
3.466804,-5.406107,-2.633622,3,7
0.057461,-6.445191,-3.0693669999999997,3,7
5.88016,-6.900089,-3.509899,3,7
4.774039,-9.251195,-2.600103,3,7
0.766145,-4.089296,-0.833182,3,7
5.865794,-9.840169,-1.23062,3,7
-1.446098,-4.903325,-0.512359,3,7
2.600103,-7.929596000000001,0.5841850000000001,3,7
-1.766921,-5.295974,0.766145,3,7
0.430956,-7.699753,-0.579397,3,7
0.8475469999999999,-9.337387,-3.797204,3,7
-1.8579,-7.623138000000001,9.021352,3,7
0.272939,-11.860875,-2.9209259999999997,3,7
2.499547,-7.843405000000001,-3.620033,3,7
-4.76925,-9.648633,-12.382812,3,7
2.475605,-9.993398,-6.62715,3,7
2.748544,-6.9096660000000005,-3.39019,3,7
1.264139,-7.517792999999999,0.493206,3,7
-1.086968,-5.717354,2.499547,3,7
-2.614468,-8.508992999999998,-0.071826,3,7
-1.522712,-16.82645,-2.791639,3,7
2.054225,-5.640739,1.56102,3,8
-2.662352,-8.145074000000001,-5.1666870000000005,3,8
-3.318364,-8.346186999999999,1.551443,3,8
2.236184,-10.175357,3.4237089999999997,3,8
-9.528923,-19.484013,4.113238,3,8
-3.864241,-19.670761,-13.962984,3,8
1.963245,-10.242394,-2.3606830000000003,3,8
3.878607,-11.48738,-12.65575,3,8
3.026271,-8.432379,-7.244853999999999,3,8
-5.023035,-16.223110000000002,-12.464214,3,8
-0.4548979999999999,-14.882357999999998,-6.933608,3,8
9.035717,-13.206416,12.617443,3,8
-1.273715,-5.353435,-0.641646,3,8
-0.794875,-9.160215,-0.1819589999999999,3,8
2.336741,-11.722012,-1.321599,3,8
-6.1578870000000006,-1.489193,-0.54109,3,8
-6.904877000000001,-20.159178,-0.866701,3,8
-1.958457,-8.978256,-4.625597,3,8
0.196325,-2.643199,-0.114922,3,8
-1.728614,-4.9943040000000005,-1.192312,3,8
0.746991,-5.238512999999999,-1.043872,3,8
-1.197101,-3.68707,2.882619,3,8
-0.344765,-9.696517,0.679953,3,8
-5.386954,-16.323667999999998,4.266468,3,8
-3.787627,-8.633492,0.895431,3,8
-2.30801,-13.445837,-2.834735,3,8
-0.545878,-3.653551999999999,6.670246000000001,3,8
2.844312,-10.486604,-1.580173,3,8
2.566584,-10.323798,-1.16837,3,8
2.63841,-7.168239999999999,-0.71826,3,8
2.566584,-10.323798,-1.16837,3,9
2.63841,-7.168239999999999,-0.71826,3,9
3.907337,-4.984728,-3.821146,3,9
0.354342,-9.56723,-5.7700260000000005,3,9
0.9912,-10.290278,-5.099648999999999,3,9
-2.389413,-12.220005,-6.330269,3,9
-1.7860740000000002,-18.737022,6.244078,3,9
4.644751,-11.018116,-1.04866,3,9
-2.269703,-2.782062,2.39899,3,9
1.479617,-9.251195,-0.857124,3,9
5.152323,-11.702858,-2.27928,3,9
1.637634,-22.720974,-10.491392,3,9
-2.346318,-3.270479,1.063026,3,9
-1.685518,-7.580042,-1.623269,3,9
-1.80044,-7.465121000000001,-3.0693669999999997,3,9
-0.124498,-12.559982000000002,6.7516490000000005,3,9
1.7525560000000002,-17.501614,-3.801992,3,9
2.331953,-9.744401,-7.407660000000001,3,9
3.222596,-8.920795,-3.08852,3,9
-3.4572269999999996,-2.715025,0.148441,3,9
2.264915,-9.931149,-4.659116,3,9
0.9912,-10.903194,-8.183380999999999,3,9
2.226608,-8.044516999999999,-2.341529,3,9
-1.647211,-11.851298,6.775591,3,9
8.39886,-13.771448,-2.566584,3,9
2.494758,-10.328587,-8.690952000000001,3,9
0.8236049999999999,-7.383717999999999,-3.5960910000000004,3,9
-6.224924,-12.23437,-26.230873,3,9
1.273715,-6.502651,-3.5721489999999996,3,9
0.7230489999999999,-6.871359,-4.079719,3,9
3.782839,-11.597513,-2.94008,3,10
-0.507571,-5.104438,-2.111686,3,10
1.369483,-4.520251999999999,-2.863465,3,10
2.494758,-11.36767,-2.255338,3,10
2.054225,-5.640739,1.56102,3,10
-2.662352,-8.145074000000001,-5.1666870000000005,3,10
-3.318364,-8.346186999999999,1.551443,3,10
2.236184,-10.175357,3.4237089999999997,3,10
-9.528923,-19.484013,4.113238,3,10
-3.864241,-19.670761,-13.962984,3,10
1.963245,-10.242394,-2.3606830000000003,3,10
3.878607,-11.48738,-12.65575,3,10
3.026271,-8.432379,-7.244853999999999,3,10
-5.023035,-16.223110000000002,-12.464214,3,10
-0.4548979999999999,-14.882357999999998,-6.933608,3,10
9.035717,-13.206416,12.617443,3,10
-1.273715,-5.353435,-0.641646,3,10
-0.794875,-9.160215,-0.1819589999999999,3,10
2.336741,-11.722012,-1.321599,3,10
-6.1578870000000006,-1.489193,-0.54109,3,10
-6.904877000000001,-20.159178,-0.866701,3,10
-1.958457,-8.978256,-4.625597,3,10
0.196325,-2.643199,-0.114922,3,10
-1.728614,-4.9943040000000005,-1.192312,3,10
0.746991,-5.238512999999999,-1.043872,3,10
-1.197101,-3.68707,2.882619,3,10
-0.344765,-9.696517,0.679953,3,10
-5.386954,-16.323667999999998,4.266468,3,10
-3.787627,-8.633492,0.895431,3,10
-2.30801,-13.445837,-2.834735,3,10
-0.665588,-4.865018,-1.2162540000000002,3,11
2.221819,-7.398083,0.8236049999999999,3,11
1.972822,-5.6982,-0.081403,3,11
0.727837,-6.445191,-1.2162540000000002,3,11
3.696648,-12.248735,1.374272,3,11
1.1300629999999998,-6.368576,-1.235408,3,11
2.394202,-17.520767000000003,0.78051,3,11
1.187524,-4.639962000000001,-2.8491,3,11
1.072602,-12.325351,0.009577,3,11
1.867477,-3.950433,-1.288081,3,11
4.88896,-7.010222,-0.062249,3,11
4.467581,-9.672575,-1.13964,3,11
3.548207,-9.385271,-1.288081,3,11
3.438074,-16.864758,-0.3304,3,11
3.169923,-2.6862939999999997,-4.031835,3,11
0.416591,-16.237476,-3.342306,3,11
12.196063,-21.049822,-11.789049,3,11
6.291962,-11.525687,-0.995988,3,11
5.535394,-2.72939,-8.528147,3,11
1.359907,-7.752425,0.641646,3,11
2.853889,-10.012551,-0.411803,3,11
-6.354211,-5.521029,-4.673482,3,11
4.76925,-12.799402,1.297657,3,11
1.685518,-7.747636999999999,-1.556231,3,11
5.133168,-10.261548,-0.8475469999999999,3,11
2.777274,-5.204994,-2.5905259999999997,3,11
2.619257,-9.203311,-1.537077,3,11
1.417368,-17.48246,0.234632,3,11
-4.76925,-9.591172,6.277597,3,11
6.56969,3.016694,1.824382,3,11
-3.787627,-8.633492,0.895431,3,12
-2.30801,-13.445837,-2.834735,3,12
-0.545878,-3.653551999999999,6.670246000000001,3,12
2.844312,-10.486604,-1.580173,3,12
2.566584,-10.323798,-1.16837,3,12
2.63841,-7.168239999999999,-0.71826,3,12
3.907337,-4.984728,-3.821146,3,12
0.354342,-9.56723,-5.7700260000000005,3,12
0.9912,-10.290278,-5.099648999999999,3,12
-2.389413,-12.220005,-6.330269,3,12
-1.7860740000000002,-18.737022,6.244078,3,12
4.644751,-11.018116,-1.04866,3,12
-2.269703,-2.782062,2.39899,3,12
1.479617,-9.251195,-0.857124,3,12
5.152323,-11.702858,-2.27928,3,12
1.637634,-22.720974,-10.491392,3,12
-2.346318,-3.270479,1.063026,3,12
-1.685518,-7.580042,-1.623269,3,12
-1.80044,-7.465121000000001,-3.0693669999999997,3,12
-0.124498,-12.559982000000002,6.7516490000000005,3,12
1.7525560000000002,-17.501614,-3.801992,3,12
2.331953,-9.744401,-7.407660000000001,3,12
3.222596,-8.920795,-3.08852,3,12
-3.4572269999999996,-2.715025,0.148441,3,12
2.264915,-9.931149,-4.659116,3,12
0.9912,-10.903194,-8.183380999999999,3,12
2.226608,-8.044516999999999,-2.341529,3,12
-1.647211,-11.851298,6.775591,3,12
8.39886,-13.771448,-2.566584,3,12
2.494758,-10.328587,-8.690952000000001,3,12
7.11078,-7.972691,3.040636,3,13
-0.445322,-3.4811690000000004,1.225831,3,13
-1.790863,-7.489063000000001,-1.848324,3,13
0.057461,-13.086706,0.981623,3,13
-0.402226,-12.028469,-3.117251,3,13
2.992752,-10.716447,0.426168,3,13
-1.125275,-4.180276,2.418144,3,13
4.094085,-6.933608,-4.3574470000000005,3,13
2.1787240000000003,-16.232687,-0.287304,3,13
0.761356,-19.2829,-0.842759,3,13
-7.254430999999999,-15.102624,-2.801216,3,13
0.588974,-22.117635999999997,-28.031313,3,13
1.3982139999999998,-12.497733,-4.213794999999999,3,13
1.762132,-15.083470000000002,-7.560889,3,13
5.185841,-13.52724,-2.365471,3,13
-1.474828,0.526724,0.038307,3,13
0.086191,-10.16578,-0.565032,3,13
0.052672,-17.745823,-3.203442,3,13
-7.939172,-14.302960999999998,-13.10586,3,13
-2.48997,-8.829816000000001,3.193865,3,13
0.871489,-11.013328,0.885855,3,13
2.6862939999999997,-8.963891,-3.883395,3,13
1.197101,-10.400413,-6.23929,3,13
-4.3478699999999995,-6.133945,-2.020706,3,13
1.714248,-11.219229,1.063026,3,13
-1.94888,-3.064578,-2.513912,3,13
1.225831,-5.5545480000000005,-2.317587,3,13
0.21069,-10.802638,-1.599327,3,13
2.7389669999999997,-8.657434,4.031836,3,13
4.094085,-11.401189,-0.651223,3,13
0.052672,-8.403648,-4.185065,3,14
-1.843535,-3.892972,-1.929727,3,14
0.665588,-6.809108999999999,-1.939303,3,14
-2.011129,-4.232949,-0.919373,3,14
2.432509,-10.304645,-1.671153,3,14
0.588974,-5.999869,-2.327164,3,14
1.431733,-8.27436,-1.73819,3,14
-1.7860740000000002,-7.996633,-3.3279400000000003,3,14
0.885855,-11.468226,5.544971,3,14
-0.770933,-21.74414,-3.605668,3,14
6.670246000000001,-13.206416,-4.611232,3,14
0.675165,-17.343597,-7.225700999999999,3,14
7.771578999999999,-8.580819,12.650962,3,14
3.873819,-6.162675,-6.210559,3,14
3.193865,-12.392388,2.5953150000000003,3,14
4.9512089999999995,-25.828648,-7.991845,3,14
7.484275,-14.887146,2.973599,3,14
4.797981,-19.560625,-9.227253,3,14
-0.933739,-9.188946,10.007763,3,14
4.347871,-7.354987,-6.277597,3,14
5.061342,-13.785813,10.333375,3,14
2.499547,-4.788403,0.019154,3,14
5.923255,-18.195932,10.486604,3,14
2.5953150000000003,-7.762002000000001,-10.606314,3,14
-6.287173,-20.60929,-38.08696,3,14
1.4987700000000002,-14.719551999999998,-5.9759269999999995,3,14
4.936844000000001,-19.177555,17.492037,3,14
5.0086699999999995,-9.591172,-1.522712,3,14
0.21069,-4.065354,1.5370780000000002,3,14
-0.47884,-12.210428,-0.301669,3,14
0.21069,-4.065354,1.5370780000000002,3,15
-0.47884,-12.210428,-0.301669,3,15
-0.153229,-10.213664,-1.7525560000000002,3,15
0.6272810000000001,-7.627927000000001,-3.270479,3,15
1.177947,-5.415684,-2.059013,3,15
3.466804,-5.406107,-2.633622,3,15
0.057461,-6.445191,-3.0693669999999997,3,15
5.88016,-6.900089,-3.509899,3,15
4.774039,-9.251195,-2.600103,3,15
0.766145,-4.089296,-0.833182,3,15
5.865794,-9.840169,-1.23062,3,15
-1.446098,-4.903325,-0.512359,3,15
2.600103,-7.929596000000001,0.5841850000000001,3,15
-1.766921,-5.295974,0.766145,3,15
0.430956,-7.699753,-0.579397,3,15
0.8475469999999999,-9.337387,-3.797204,3,15
-1.8579,-7.623138000000001,9.021352,3,15
0.272939,-11.860875,-2.9209259999999997,3,15
2.499547,-7.843405000000001,-3.620033,3,15
-4.76925,-9.648633,-12.382812,3,15
2.475605,-9.993398,-6.62715,3,15
2.748544,-6.9096660000000005,-3.39019,3,15
1.264139,-7.517792999999999,0.493206,3,15
-1.086968,-5.717354,2.499547,3,15
-2.614468,-8.508992999999998,-0.071826,3,15
-1.522712,-16.82645,-2.791639,3,15
4.31914,-13.091495,-0.411803,3,15
0.430956,-15.255854,-5.688623000000001,3,15
5.061342,-14.508862,-22.663513,3,15
2.82037,-9.710882000000002,-3.806781,3,15
4.936844000000001,-19.177555,17.492037,3,16
5.0086699999999995,-9.591172,-1.522712,3,16
0.21069,-4.065354,1.5370780000000002,3,16
-0.47884,-12.210428,-0.301669,3,16
-0.153229,-10.213664,-1.7525560000000002,3,16
0.6272810000000001,-7.627927000000001,-3.270479,3,16
1.177947,-5.415684,-2.059013,3,16
3.466804,-5.406107,-2.633622,3,16
0.057461,-6.445191,-3.0693669999999997,3,16
5.88016,-6.900089,-3.509899,3,16
4.774039,-9.251195,-2.600103,3,16
0.766145,-4.089296,-0.833182,3,16
5.865794,-9.840169,-1.23062,3,16
-1.446098,-4.903325,-0.512359,3,16
2.600103,-7.929596000000001,0.5841850000000001,3,16
-1.766921,-5.295974,0.766145,3,16
0.430956,-7.699753,-0.579397,3,16
0.8475469999999999,-9.337387,-3.797204,3,16
-1.8579,-7.623138000000001,9.021352,3,16
0.272939,-11.860875,-2.9209259999999997,3,16
2.499547,-7.843405000000001,-3.620033,3,16
-4.76925,-9.648633,-12.382812,3,16
2.475605,-9.993398,-6.62715,3,16
2.748544,-6.9096660000000005,-3.39019,3,16
1.264139,-7.517792999999999,0.493206,3,16
-1.086968,-5.717354,2.499547,3,16
-2.614468,-8.508992999999998,-0.071826,3,16
-1.522712,-16.82645,-2.791639,3,16
4.31914,-13.091495,-0.411803,3,16
0.430956,-15.255854,-5.688623000000001,3,16
3.677494,-6.8761470000000005,-2.782062,3,17
0.612916,-3.744531,-0.507571,3,17
0.052672,-8.403648,-4.185065,3,17
-1.843535,-3.892972,-1.929727,3,17
0.665588,-6.809108999999999,-1.939303,3,17
-2.011129,-4.232949,-0.919373,3,17
2.432509,-10.304645,-1.671153,3,17
0.588974,-5.999869,-2.327164,3,17
1.431733,-8.27436,-1.73819,3,17
-1.7860740000000002,-7.996633,-3.3279400000000003,3,17
0.885855,-11.468226,5.544971,3,17
-0.770933,-21.74414,-3.605668,3,17
6.670246000000001,-13.206416,-4.611232,3,17
0.675165,-17.343597,-7.225700999999999,3,17
7.771578999999999,-8.580819,12.650962,3,17
3.873819,-6.162675,-6.210559,3,17
3.193865,-12.392388,2.5953150000000003,3,17
4.9512089999999995,-25.828648,-7.991845,3,17
7.484275,-14.887146,2.973599,3,17
4.797981,-19.560625,-9.227253,3,17
-0.933739,-9.188946,10.007763,3,17
4.347871,-7.354987,-6.277597,3,17
5.061342,-13.785813,10.333375,3,17
2.499547,-4.788403,0.019154,3,17
5.923255,-18.195932,10.486604,3,17
2.5953150000000003,-7.762002000000001,-10.606314,3,17
-6.287173,-20.60929,-38.08696,3,17
1.4987700000000002,-14.719551999999998,-5.9759269999999995,3,17
4.936844000000001,-19.177555,17.492037,3,17
5.0086699999999995,-9.591172,-1.522712,3,17
-1.790863,-7.489063000000001,-1.848324,3,18
0.057461,-13.086706,0.981623,3,18
-0.402226,-12.028469,-3.117251,3,18
2.992752,-10.716447,0.426168,3,18
-1.125275,-4.180276,2.418144,3,18
4.094085,-6.933608,-4.3574470000000005,3,18
2.1787240000000003,-16.232687,-0.287304,3,18
0.761356,-19.2829,-0.842759,3,18
-7.254430999999999,-15.102624,-2.801216,3,18
0.588974,-22.117635999999997,-28.031313,3,18
1.3982139999999998,-12.497733,-4.213794999999999,3,18
1.762132,-15.083470000000002,-7.560889,3,18
5.185841,-13.52724,-2.365471,3,18
-1.474828,0.526724,0.038307,3,18
0.086191,-10.16578,-0.565032,3,18
0.052672,-17.745823,-3.203442,3,18
-7.939172,-14.302960999999998,-13.10586,3,18
-2.48997,-8.829816000000001,3.193865,3,18
0.871489,-11.013328,0.885855,3,18
2.6862939999999997,-8.963891,-3.883395,3,18
1.197101,-10.400413,-6.23929,3,18
-4.3478699999999995,-6.133945,-2.020706,3,18
1.714248,-11.219229,1.063026,3,18
-1.94888,-3.064578,-2.513912,3,18
1.225831,-5.5545480000000005,-2.317587,3,18
0.21069,-10.802638,-1.599327,3,18
2.7389669999999997,-8.657434,4.031836,3,18
4.094085,-11.401189,-0.651223,3,18
1.647211,-8.207322999999999,-8.537724,3,18
0.277727,-7.067683000000001,-4.893748,3,18
-0.545878,-3.653551999999999,6.670246000000001,3,19
2.844312,-10.486604,-1.580173,3,19
2.566584,-10.323798,-1.16837,3,19
2.63841,-7.168239999999999,-0.71826,3,19
3.907337,-4.984728,-3.821146,3,19
0.354342,-9.56723,-5.7700260000000005,3,19
0.9912,-10.290278,-5.099648999999999,3,19
-2.389413,-12.220005,-6.330269,3,19
-1.7860740000000002,-18.737022,6.244078,3,19
4.644751,-11.018116,-1.04866,3,19
-2.269703,-2.782062,2.39899,3,19
1.479617,-9.251195,-0.857124,3,19
5.152323,-11.702858,-2.27928,3,19
1.637634,-22.720974,-10.491392,3,19
-2.346318,-3.270479,1.063026,3,19
-1.685518,-7.580042,-1.623269,3,19
-1.80044,-7.465121000000001,-3.0693669999999997,3,19
-0.124498,-12.559982000000002,6.7516490000000005,3,19
1.7525560000000002,-17.501614,-3.801992,3,19
2.331953,-9.744401,-7.407660000000001,3,19
3.222596,-8.920795,-3.08852,3,19
-3.4572269999999996,-2.715025,0.148441,3,19
2.264915,-9.931149,-4.659116,3,19
0.9912,-10.903194,-8.183380999999999,3,19
2.226608,-8.044516999999999,-2.341529,3,19
-1.647211,-11.851298,6.775591,3,19
8.39886,-13.771448,-2.566584,3,19
2.494758,-10.328587,-8.690952000000001,3,19
0.8236049999999999,-7.383717999999999,-3.5960910000000004,3,19
-6.224924,-12.23437,-26.230873,3,19
1.369483,-4.520251999999999,-2.863465,3,20
2.494758,-11.36767,-2.255338,3,20
2.054225,-5.640739,1.56102,3,20
-2.662352,-8.145074000000001,-5.1666870000000005,3,20
-3.318364,-8.346186999999999,1.551443,3,20
2.236184,-10.175357,3.4237089999999997,3,20
-9.528923,-19.484013,4.113238,3,20
-3.864241,-19.670761,-13.962984,3,20
1.963245,-10.242394,-2.3606830000000003,3,20
3.878607,-11.48738,-12.65575,3,20
3.026271,-8.432379,-7.244853999999999,3,20
-5.023035,-16.223110000000002,-12.464214,3,20
-0.4548979999999999,-14.882357999999998,-6.933608,3,20
9.035717,-13.206416,12.617443,3,20
-1.273715,-5.353435,-0.641646,3,20
-0.794875,-9.160215,-0.1819589999999999,3,20
2.336741,-11.722012,-1.321599,3,20
-6.1578870000000006,-1.489193,-0.54109,3,20
-6.904877000000001,-20.159178,-0.866701,3,20
-1.958457,-8.978256,-4.625597,3,20
0.196325,-2.643199,-0.114922,3,20
-1.728614,-4.9943040000000005,-1.192312,3,20
0.746991,-5.238512999999999,-1.043872,3,20
-1.197101,-3.68707,2.882619,3,20
-0.344765,-9.696517,0.679953,3,20
-5.386954,-16.323667999999998,4.266468,3,20
-3.787627,-8.633492,0.895431,3,20
-2.30801,-13.445837,-2.834735,3,20
-0.545878,-3.653551999999999,6.670246000000001,3,20
2.844312,-10.486604,-1.580173,3,20
1.972822,-5.6982,-0.081403,3,21
0.727837,-6.445191,-1.2162540000000002,3,21
3.696648,-12.248735,1.374272,3,21
1.1300629999999998,-6.368576,-1.235408,3,21
2.394202,-17.520767000000003,0.78051,3,21
1.187524,-4.639962000000001,-2.8491,3,21
1.072602,-12.325351,0.009577,3,21
1.867477,-3.950433,-1.288081,3,21
4.88896,-7.010222,-0.062249,3,21
4.467581,-9.672575,-1.13964,3,21
3.548207,-9.385271,-1.288081,3,21
3.438074,-16.864758,-0.3304,3,21
3.169923,-2.6862939999999997,-4.031835,3,21
0.416591,-16.237476,-3.342306,3,21
12.196063,-21.049822,-11.789049,3,21
6.291962,-11.525687,-0.995988,3,21
5.535394,-2.72939,-8.528147,3,21
1.359907,-7.752425,0.641646,3,21
2.853889,-10.012551,-0.411803,3,21
-6.354211,-5.521029,-4.673482,3,21
4.76925,-12.799402,1.297657,3,21
1.685518,-7.747636999999999,-1.556231,3,21
5.133168,-10.261548,-0.8475469999999999,3,21
2.777274,-5.204994,-2.5905259999999997,3,21
2.619257,-9.203311,-1.537077,3,21
1.417368,-17.48246,0.234632,3,21
-4.76925,-9.591172,6.277597,3,21
6.56969,3.016694,1.824382,3,21
3.5721489999999996,1.891419,7.192182000000001,3,21
3.4237089999999997,3.0693669999999997,9.504981,3,21
-10.036493,-12.765883,-0.6464340000000001,3,22
-0.158017,-2.930503,-7.479486,3,22
-2.604891,-7.661445,-0.11971,3,22
-1.40779,-13.340492,-3.916914,3,22
-2.255338,-14.398729,-2.801216,3,22
-7.517792999999999,-11.947066,-1.656788,3,22
-1.996764,1.393425,2.652776,3,22
-4.189853,-10.275913,1.1300629999999998,3,22
0.8379709999999999,-11.693281,-1.1300629999999998,3,22
-3.122039,-11.985373,-1.393425,3,22
-2.0781669999999997,-4.209007,-1.244985,3,22
-1.877054,-6.943185000000001,-1.915361,3,22
-5.473145,-10.730812,-1.077391,3,22
2.987964,-5.0182459999999995,1.647211,3,22
0.675165,-11.60709,-2.662352,3,22
-1.278504,-2.700659,0.924162,3,22
-4.424484,-10.726024,-1.082179,3,22
0.646435,-0.641646,-1.04866,3,22
-1.623269,-6.603208,0.071826,3,22
-4.3239279999999995,-2.671929,3.485958,3,22
-5.228936,-3.557784,-0.038307,3,22
-3.08852,-14.130578,0.215478,3,22
-3.021482,-8.39886,1.312023,3,22
-11.238382,-12.018892,-2.762909,3,22
-0.488417,-9.356541,0.11971,3,22
-7.675811,-17.00362,-1.5466540000000002,3,22
-0.521936,0.708684,-5.0517650000000005,3,22
-3.715801,-5.645528,0.670377,3,22
-1.666364,-9.121908,-2.753332,3,22
-6.354211,-5.717354,-0.579397,3,22
-1.125275,-4.180276,2.418144,3,23
4.094085,-6.933608,-4.3574470000000005,3,23
2.1787240000000003,-16.232687,-0.287304,3,23
0.761356,-19.2829,-0.842759,3,23
-7.254430999999999,-15.102624,-2.801216,3,23
0.588974,-22.117635999999997,-28.031313,3,23
1.3982139999999998,-12.497733,-4.213794999999999,3,23
1.762132,-15.083470000000002,-7.560889,3,23
5.185841,-13.52724,-2.365471,3,23
-1.474828,0.526724,0.038307,3,23
0.086191,-10.16578,-0.565032,3,23
0.052672,-17.745823,-3.203442,3,23
-7.939172,-14.302960999999998,-13.10586,3,23
-2.48997,-8.829816000000001,3.193865,3,23
0.871489,-11.013328,0.885855,3,23
2.6862939999999997,-8.963891,-3.883395,3,23
1.197101,-10.400413,-6.23929,3,23
-4.3478699999999995,-6.133945,-2.020706,3,23
1.714248,-11.219229,1.063026,3,23
-1.94888,-3.064578,-2.513912,3,23
1.225831,-5.5545480000000005,-2.317587,3,23
0.21069,-10.802638,-1.599327,3,23
2.7389669999999997,-8.657434,4.031836,3,23
4.094085,-11.401189,-0.651223,3,23
1.647211,-8.207322999999999,-8.537724,3,23
0.277727,-7.067683000000001,-4.893748,3,23
1.364695,-8.528147,-6.382941000000001,3,23
9.141062,-9.184157,0.42138,3,23
7.953538000000001,-14.413095000000002,-2.494758,3,23
0.651223,-1.40779,4.683059,3,23
1.963245,-10.242394,-2.3606830000000003,3,24
3.878607,-11.48738,-12.65575,3,24
3.026271,-8.432379,-7.244853999999999,3,24
-5.023035,-16.223110000000002,-12.464214,3,24
-0.4548979999999999,-14.882357999999998,-6.933608,3,24
9.035717,-13.206416,12.617443,3,24
-1.273715,-5.353435,-0.641646,3,24
-0.794875,-9.160215,-0.1819589999999999,3,24
2.336741,-11.722012,-1.321599,3,24
-6.1578870000000006,-1.489193,-0.54109,3,24
-6.904877000000001,-20.159178,-0.866701,3,24
-1.958457,-8.978256,-4.625597,3,24
0.196325,-2.643199,-0.114922,3,24
-1.728614,-4.9943040000000005,-1.192312,3,24
0.746991,-5.238512999999999,-1.043872,3,24
-1.197101,-3.68707,2.882619,3,24
-0.344765,-9.696517,0.679953,3,24
-5.386954,-16.323667999999998,4.266468,3,24
-3.787627,-8.633492,0.895431,3,24
-2.30801,-13.445837,-2.834735,3,24
-0.545878,-3.653551999999999,6.670246000000001,3,24
2.844312,-10.486604,-1.580173,3,24
2.566584,-10.323798,-1.16837,3,24
2.63841,-7.168239999999999,-0.71826,3,24
3.907337,-4.984728,-3.821146,3,24
0.354342,-9.56723,-5.7700260000000005,3,24
0.9912,-10.290278,-5.099648999999999,3,24
-2.389413,-12.220005,-6.330269,3,24
-1.7860740000000002,-18.737022,6.244078,3,24
4.644751,-11.018116,-1.04866,3,24
0.196325,-2.643199,-0.114922,3,25
-1.728614,-4.9943040000000005,-1.192312,3,25
0.746991,-5.238512999999999,-1.043872,3,25
-1.197101,-3.68707,2.882619,3,25
-0.344765,-9.696517,0.679953,3,25
-5.386954,-16.323667999999998,4.266468,3,25
-3.787627,-8.633492,0.895431,3,25
-2.30801,-13.445837,-2.834735,3,25
-0.545878,-3.653551999999999,6.670246000000001,3,25
2.844312,-10.486604,-1.580173,3,25
2.566584,-10.323798,-1.16837,3,25
2.63841,-7.168239999999999,-0.71826,3,25
3.907337,-4.984728,-3.821146,3,25
0.354342,-9.56723,-5.7700260000000005,3,25
0.9912,-10.290278,-5.099648999999999,3,25
-2.389413,-12.220005,-6.330269,3,25
-1.7860740000000002,-18.737022,6.244078,3,25
4.644751,-11.018116,-1.04866,3,25
-2.269703,-2.782062,2.39899,3,25
1.479617,-9.251195,-0.857124,3,25
5.152323,-11.702858,-2.27928,3,25
1.637634,-22.720974,-10.491392,3,25
-2.346318,-3.270479,1.063026,3,25
-1.685518,-7.580042,-1.623269,3,25
-1.80044,-7.465121000000001,-3.0693669999999997,3,25
-0.124498,-12.559982000000002,6.7516490000000005,3,25
1.7525560000000002,-17.501614,-3.801992,3,25
2.331953,-9.744401,-7.407660000000001,3,25
3.222596,-8.920795,-3.08852,3,25
-3.4572269999999996,-2.715025,0.148441,3,25
1.431733,-8.27436,-1.73819,3,26
-1.7860740000000002,-7.996633,-3.3279400000000003,3,26
0.885855,-11.468226,5.544971,3,26
-0.770933,-21.74414,-3.605668,3,26
6.670246000000001,-13.206416,-4.611232,3,26
0.675165,-17.343597,-7.225700999999999,3,26
7.771578999999999,-8.580819,12.650962,3,26
3.873819,-6.162675,-6.210559,3,26
3.193865,-12.392388,2.5953150000000003,3,26
4.9512089999999995,-25.828648,-7.991845,3,26
7.484275,-14.887146,2.973599,3,26
4.797981,-19.560625,-9.227253,3,26
-0.933739,-9.188946,10.007763,3,26
4.347871,-7.354987,-6.277597,3,26
5.061342,-13.785813,10.333375,3,26
2.499547,-4.788403,0.019154,3,26
5.923255,-18.195932,10.486604,3,26
2.5953150000000003,-7.762002000000001,-10.606314,3,26
-6.287173,-20.60929,-38.08696,3,26
1.4987700000000002,-14.719551999999998,-5.9759269999999995,3,26
4.936844000000001,-19.177555,17.492037,3,26
5.0086699999999995,-9.591172,-1.522712,3,26
0.21069,-4.065354,1.5370780000000002,3,26
-0.47884,-12.210428,-0.301669,3,26
-0.153229,-10.213664,-1.7525560000000002,3,26
0.6272810000000001,-7.627927000000001,-3.270479,3,26
1.177947,-5.415684,-2.059013,3,26
3.466804,-5.406107,-2.633622,3,26
0.057461,-6.445191,-3.0693669999999997,3,26
5.88016,-6.900089,-3.509899,3,26
-0.933739,-9.188946,10.007763,3,27
4.347871,-7.354987,-6.277597,3,27
5.061342,-13.785813,10.333375,3,27
2.499547,-4.788403,0.019154,3,27
5.923255,-18.195932,10.486604,3,27
2.5953150000000003,-7.762002000000001,-10.606314,3,27
-6.287173,-20.60929,-38.08696,3,27
1.4987700000000002,-14.719551999999998,-5.9759269999999995,3,27
4.936844000000001,-19.177555,17.492037,3,27
5.0086699999999995,-9.591172,-1.522712,3,27
0.21069,-4.065354,1.5370780000000002,3,27
-0.47884,-12.210428,-0.301669,3,27
-0.153229,-10.213664,-1.7525560000000002,3,27
0.6272810000000001,-7.627927000000001,-3.270479,3,27
1.177947,-5.415684,-2.059013,3,27
3.466804,-5.406107,-2.633622,3,27
0.057461,-6.445191,-3.0693669999999997,3,27
5.88016,-6.900089,-3.509899,3,27
4.774039,-9.251195,-2.600103,3,27
0.766145,-4.089296,-0.833182,3,27
5.865794,-9.840169,-1.23062,3,27
-1.446098,-4.903325,-0.512359,3,27
2.600103,-7.929596000000001,0.5841850000000001,3,27
-1.766921,-5.295974,0.766145,3,27
0.430956,-7.699753,-0.579397,3,27
0.8475469999999999,-9.337387,-3.797204,3,27
-1.8579,-7.623138000000001,9.021352,3,27
0.272939,-11.860875,-2.9209259999999997,3,27
2.499547,-7.843405000000001,-3.620033,3,27
-4.76925,-9.648633,-12.382812,3,27
5.061342,-13.785813,10.333375,3,28
2.499547,-4.788403,0.019154,3,28
5.923255,-18.195932,10.486604,3,28
2.5953150000000003,-7.762002000000001,-10.606314,3,28
-6.287173,-20.60929,-38.08696,3,28
1.4987700000000002,-14.719551999999998,-5.9759269999999995,3,28
4.936844000000001,-19.177555,17.492037,3,28
5.0086699999999995,-9.591172,-1.522712,3,28
0.21069,-4.065354,1.5370780000000002,3,28
-0.47884,-12.210428,-0.301669,3,28
-0.153229,-10.213664,-1.7525560000000002,3,28
0.6272810000000001,-7.627927000000001,-3.270479,3,28
1.177947,-5.415684,-2.059013,3,28
3.466804,-5.406107,-2.633622,3,28
0.057461,-6.445191,-3.0693669999999997,3,28
5.88016,-6.900089,-3.509899,3,28
4.774039,-9.251195,-2.600103,3,28
0.766145,-4.089296,-0.833182,3,28
5.865794,-9.840169,-1.23062,3,28
-1.446098,-4.903325,-0.512359,3,28
2.600103,-7.929596000000001,0.5841850000000001,3,28
-1.766921,-5.295974,0.766145,3,28
0.430956,-7.699753,-0.579397,3,28
0.8475469999999999,-9.337387,-3.797204,3,28
-1.8579,-7.623138000000001,9.021352,3,28
0.272939,-11.860875,-2.9209259999999997,3,28
2.499547,-7.843405000000001,-3.620033,3,28
-4.76925,-9.648633,-12.382812,3,28
2.475605,-9.993398,-6.62715,3,28
2.748544,-6.9096660000000005,-3.39019,3,28
0.885855,-11.468226,5.544971,3,29
-0.770933,-21.74414,-3.605668,3,29
6.670246000000001,-13.206416,-4.611232,3,29
0.675165,-17.343597,-7.225700999999999,3,29
7.771578999999999,-8.580819,12.650962,3,29
3.873819,-6.162675,-6.210559,3,29
3.193865,-12.392388,2.5953150000000003,3,29
4.9512089999999995,-25.828648,-7.991845,3,29
7.484275,-14.887146,2.973599,3,29
4.797981,-19.560625,-9.227253,3,29
-0.933739,-9.188946,10.007763,3,29
4.347871,-7.354987,-6.277597,3,29
5.061342,-13.785813,10.333375,3,29
2.499547,-4.788403,0.019154,3,29
5.923255,-18.195932,10.486604,3,29
2.5953150000000003,-7.762002000000001,-10.606314,3,29
-6.287173,-20.60929,-38.08696,3,29
1.4987700000000002,-14.719551999999998,-5.9759269999999995,3,29
4.936844000000001,-19.177555,17.492037,3,29
5.0086699999999995,-9.591172,-1.522712,3,29
0.21069,-4.065354,1.5370780000000002,3,29
-0.47884,-12.210428,-0.301669,3,29
-0.153229,-10.213664,-1.7525560000000002,3,29
0.6272810000000001,-7.627927000000001,-3.270479,3,29
1.177947,-5.415684,-2.059013,3,29
3.466804,-5.406107,-2.633622,3,29
0.057461,-6.445191,-3.0693669999999997,3,29
5.88016,-6.900089,-3.509899,3,29
4.774039,-9.251195,-2.600103,3,29
0.766145,-4.089296,-0.833182,3,29
-6.904877000000001,-20.159178,-0.866701,3,30
-1.958457,-8.978256,-4.625597,3,30
0.196325,-2.643199,-0.114922,3,30
-1.728614,-4.9943040000000005,-1.192312,3,30
0.746991,-5.238512999999999,-1.043872,3,30
-1.197101,-3.68707,2.882619,3,30
-0.344765,-9.696517,0.679953,3,30
-5.386954,-16.323667999999998,4.266468,3,30
-3.787627,-8.633492,0.895431,3,30
-2.30801,-13.445837,-2.834735,3,30
-0.545878,-3.653551999999999,6.670246000000001,3,30
2.844312,-10.486604,-1.580173,3,30
2.566584,-10.323798,-1.16837,3,30
2.63841,-7.168239999999999,-0.71826,3,30
3.907337,-4.984728,-3.821146,3,30
0.354342,-9.56723,-5.7700260000000005,3,30
0.9912,-10.290278,-5.099648999999999,3,30
-2.389413,-12.220005,-6.330269,3,30
-1.7860740000000002,-18.737022,6.244078,3,30
4.644751,-11.018116,-1.04866,3,30
-2.269703,-2.782062,2.39899,3,30
1.479617,-9.251195,-0.857124,3,30
5.152323,-11.702858,-2.27928,3,30
1.637634,-22.720974,-10.491392,3,30
-2.346318,-3.270479,1.063026,3,30
-1.685518,-7.580042,-1.623269,3,30
-1.80044,-7.465121000000001,-3.0693669999999997,3,30
-0.124498,-12.559982000000002,6.7516490000000005,3,30
1.7525560000000002,-17.501614,-3.801992,3,30
2.331953,-9.744401,-7.407660000000001,3,30
-0.402226,-12.028469,-3.117251,3,31
2.992752,-10.716447,0.426168,3,31
-1.125275,-4.180276,2.418144,3,31
4.094085,-6.933608,-4.3574470000000005,3,31
2.1787240000000003,-16.232687,-0.287304,3,31
0.761356,-19.2829,-0.842759,3,31
-7.254430999999999,-15.102624,-2.801216,3,31
0.588974,-22.117635999999997,-28.031313,3,31
1.3982139999999998,-12.497733,-4.213794999999999,3,31
1.762132,-15.083470000000002,-7.560889,3,31
5.185841,-13.52724,-2.365471,3,31
-1.474828,0.526724,0.038307,3,31
0.086191,-10.16578,-0.565032,3,31
0.052672,-17.745823,-3.203442,3,31
-7.939172,-14.302960999999998,-13.10586,3,31
-2.48997,-8.829816000000001,3.193865,3,31
0.871489,-11.013328,0.885855,3,31
2.6862939999999997,-8.963891,-3.883395,3,31
1.197101,-10.400413,-6.23929,3,31
-4.3478699999999995,-6.133945,-2.020706,3,31
1.714248,-11.219229,1.063026,3,31
-1.94888,-3.064578,-2.513912,3,31
1.225831,-5.5545480000000005,-2.317587,3,31
0.21069,-10.802638,-1.599327,3,31
2.7389669999999997,-8.657434,4.031836,3,31
4.094085,-11.401189,-0.651223,3,31
1.647211,-8.207322999999999,-8.537724,3,31
0.277727,-7.067683000000001,-4.893748,3,31
1.364695,-8.528147,-6.382941000000001,3,31
9.141062,-9.184157,0.42138,3,31
-9.528923,-19.484013,4.113238,3,32
-3.864241,-19.670761,-13.962984,3,32
1.963245,-10.242394,-2.3606830000000003,3,32
3.878607,-11.48738,-12.65575,3,32
3.026271,-8.432379,-7.244853999999999,3,32
-5.023035,-16.223110000000002,-12.464214,3,32
-0.4548979999999999,-14.882357999999998,-6.933608,3,32
9.035717,-13.206416,12.617443,3,32
-1.273715,-5.353435,-0.641646,3,32
-0.794875,-9.160215,-0.1819589999999999,3,32
2.336741,-11.722012,-1.321599,3,32
-6.1578870000000006,-1.489193,-0.54109,3,32
-6.904877000000001,-20.159178,-0.866701,3,32
-1.958457,-8.978256,-4.625597,3,32
0.196325,-2.643199,-0.114922,3,32
-1.728614,-4.9943040000000005,-1.192312,3,32
0.746991,-5.238512999999999,-1.043872,3,32
-1.197101,-3.68707,2.882619,3,32
-0.344765,-9.696517,0.679953,3,32
-5.386954,-16.323667999999998,4.266468,3,32
-3.787627,-8.633492,0.895431,3,32
-2.30801,-13.445837,-2.834735,3,32
-0.545878,-3.653551999999999,6.670246000000001,3,32
2.844312,-10.486604,-1.580173,3,32
2.566584,-10.323798,-1.16837,3,32
2.63841,-7.168239999999999,-0.71826,3,32
3.907337,-4.984728,-3.821146,3,32
0.354342,-9.56723,-5.7700260000000005,3,32
0.9912,-10.290278,-5.099648999999999,3,32
-2.389413,-12.220005,-6.330269,3,32
-5.755661,-13.891158,1.273715,3,33
-7.196969999999999,-11.358092999999998,1.685518,3,33
-10.036493,-12.765883,-0.6464340000000001,3,33
-0.158017,-2.930503,-7.479486,3,33
-2.604891,-7.661445,-0.11971,3,33
-1.40779,-13.340492,-3.916914,3,33
-2.255338,-14.398729,-2.801216,3,33
-7.517792999999999,-11.947066,-1.656788,3,33
-1.996764,1.393425,2.652776,3,33
-4.189853,-10.275913,1.1300629999999998,3,33
0.8379709999999999,-11.693281,-1.1300629999999998,3,33
-3.122039,-11.985373,-1.393425,3,33
-2.0781669999999997,-4.209007,-1.244985,3,33
-1.877054,-6.943185000000001,-1.915361,3,33
-5.473145,-10.730812,-1.077391,3,33
2.987964,-5.0182459999999995,1.647211,3,33
0.675165,-11.60709,-2.662352,3,33
-1.278504,-2.700659,0.924162,3,33
-4.424484,-10.726024,-1.082179,3,33
0.646435,-0.641646,-1.04866,3,33
-1.623269,-6.603208,0.071826,3,33
-4.3239279999999995,-2.671929,3.485958,3,33
-5.228936,-3.557784,-0.038307,3,33
-3.08852,-14.130578,0.215478,3,33
-3.021482,-8.39886,1.312023,3,33
-11.238382,-12.018892,-2.762909,3,33
-0.488417,-9.356541,0.11971,3,33
-7.675811,-17.00362,-1.5466540000000002,3,33
-0.521936,0.708684,-5.0517650000000005,3,33
-3.715801,-5.645528,0.670377,3,33
0.746991,-5.238512999999999,-1.043872,3,34
-1.197101,-3.68707,2.882619,3,34
-0.344765,-9.696517,0.679953,3,34
-5.386954,-16.323667999999998,4.266468,3,34
-3.787627,-8.633492,0.895431,3,34
-2.30801,-13.445837,-2.834735,3,34
-0.545878,-3.653551999999999,6.670246000000001,3,34
2.844312,-10.486604,-1.580173,3,34
2.566584,-10.323798,-1.16837,3,34
2.63841,-7.168239999999999,-0.71826,3,34
3.907337,-4.984728,-3.821146,3,34
0.354342,-9.56723,-5.7700260000000005,3,34
0.9912,-10.290278,-5.099648999999999,3,34
-2.389413,-12.220005,-6.330269,3,34
-1.7860740000000002,-18.737022,6.244078,3,34
4.644751,-11.018116,-1.04866,3,34
-2.269703,-2.782062,2.39899,3,34
1.479617,-9.251195,-0.857124,3,34
5.152323,-11.702858,-2.27928,3,34
1.637634,-22.720974,-10.491392,3,34
-2.346318,-3.270479,1.063026,3,34
-1.685518,-7.580042,-1.623269,3,34
-1.80044,-7.465121000000001,-3.0693669999999997,3,34
-0.124498,-12.559982000000002,6.7516490000000005,3,34
1.7525560000000002,-17.501614,-3.801992,3,34
2.331953,-9.744401,-7.407660000000001,3,34
3.222596,-8.920795,-3.08852,3,34
-3.4572269999999996,-2.715025,0.148441,3,34
2.264915,-9.931149,-4.659116,3,34
0.9912,-10.903194,-8.183380999999999,3,34
3.026271,-8.432379,-7.244853999999999,3,35
-5.023035,-16.223110000000002,-12.464214,3,35
-0.4548979999999999,-14.882357999999998,-6.933608,3,35
9.035717,-13.206416,12.617443,3,35
-1.273715,-5.353435,-0.641646,3,35
-0.794875,-9.160215,-0.1819589999999999,3,35
2.336741,-11.722012,-1.321599,3,35
-6.1578870000000006,-1.489193,-0.54109,3,35
-6.904877000000001,-20.159178,-0.866701,3,35
-1.958457,-8.978256,-4.625597,3,35
0.196325,-2.643199,-0.114922,3,35
-1.728614,-4.9943040000000005,-1.192312,3,35
0.746991,-5.238512999999999,-1.043872,3,35
-1.197101,-3.68707,2.882619,3,35
-0.344765,-9.696517,0.679953,3,35
-5.386954,-16.323667999999998,4.266468,3,35
-3.787627,-8.633492,0.895431,3,35
-2.30801,-13.445837,-2.834735,3,35
-0.545878,-3.653551999999999,6.670246000000001,3,35
2.844312,-10.486604,-1.580173,3,35
2.566584,-10.323798,-1.16837,3,35
2.63841,-7.168239999999999,-0.71826,3,35
3.907337,-4.984728,-3.821146,3,35
0.354342,-9.56723,-5.7700260000000005,3,35
0.9912,-10.290278,-5.099648999999999,3,35
-2.389413,-12.220005,-6.330269,3,35
-1.7860740000000002,-18.737022,6.244078,3,35
4.644751,-11.018116,-1.04866,3,35
-2.269703,-2.782062,2.39899,3,35
1.479617,-9.251195,-0.857124,3,35
2.1787240000000003,-16.232687,-0.287304,3,36
0.761356,-19.2829,-0.842759,3,36
-7.254430999999999,-15.102624,-2.801216,3,36
0.588974,-22.117635999999997,-28.031313,3,36
1.3982139999999998,-12.497733,-4.213794999999999,3,36
1.762132,-15.083470000000002,-7.560889,3,36
5.185841,-13.52724,-2.365471,3,36
-1.474828,0.526724,0.038307,3,36
0.086191,-10.16578,-0.565032,3,36
0.052672,-17.745823,-3.203442,3,36
-7.939172,-14.302960999999998,-13.10586,3,36
-2.48997,-8.829816000000001,3.193865,3,36
0.871489,-11.013328,0.885855,3,36
2.6862939999999997,-8.963891,-3.883395,3,36
1.197101,-10.400413,-6.23929,3,36
-4.3478699999999995,-6.133945,-2.020706,3,36
1.714248,-11.219229,1.063026,3,36
-1.94888,-3.064578,-2.513912,3,36
1.225831,-5.5545480000000005,-2.317587,3,36
0.21069,-10.802638,-1.599327,3,36
2.7389669999999997,-8.657434,4.031836,3,36
4.094085,-11.401189,-0.651223,3,36
1.647211,-8.207322999999999,-8.537724,3,36
0.277727,-7.067683000000001,-4.893748,3,36
1.364695,-8.528147,-6.382941000000001,3,36
9.141062,-9.184157,0.42138,3,36
7.953538000000001,-14.413095000000002,-2.494758,3,36
0.651223,-1.40779,4.683059,3,36
2.418144,4.994305000000001,13.445837,3,36
0.670377,4.730943,8.403648,3,36
-0.694318,-15.030798,-5.501875,3,37
-0.632069,-14.848839000000002,-11.224017,3,37
3.782839,-11.597513,-2.94008,3,37
-0.507571,-5.104438,-2.111686,3,37
1.369483,-4.520251999999999,-2.863465,3,37
2.494758,-11.36767,-2.255338,3,37
2.054225,-5.640739,1.56102,3,37
-2.662352,-8.145074000000001,-5.1666870000000005,3,37
-3.318364,-8.346186999999999,1.551443,3,37
2.236184,-10.175357,3.4237089999999997,3,37
-9.528923,-19.484013,4.113238,3,37
-3.864241,-19.670761,-13.962984,3,37
1.963245,-10.242394,-2.3606830000000003,3,37
3.878607,-11.48738,-12.65575,3,37
3.026271,-8.432379,-7.244853999999999,3,37
-5.023035,-16.223110000000002,-12.464214,3,37
-0.4548979999999999,-14.882357999999998,-6.933608,3,37
9.035717,-13.206416,12.617443,3,37
-1.273715,-5.353435,-0.641646,3,37
-0.794875,-9.160215,-0.1819589999999999,3,37
2.336741,-11.722012,-1.321599,3,37
-6.1578870000000006,-1.489193,-0.54109,3,37
-6.904877000000001,-20.159178,-0.866701,3,37
-1.958457,-8.978256,-4.625597,3,37
0.196325,-2.643199,-0.114922,3,37
-1.728614,-4.9943040000000005,-1.192312,3,37
0.746991,-5.238512999999999,-1.043872,3,37
-1.197101,-3.68707,2.882619,3,37
-0.344765,-9.696517,0.679953,3,37
-5.386954,-16.323667999999998,4.266468,3,37
7.484275,-14.887146,2.973599,3,38
4.797981,-19.560625,-9.227253,3,38
-0.933739,-9.188946,10.007763,3,38
4.347871,-7.354987,-6.277597,3,38
5.061342,-13.785813,10.333375,3,38
2.499547,-4.788403,0.019154,3,38
5.923255,-18.195932,10.486604,3,38
2.5953150000000003,-7.762002000000001,-10.606314,3,38
-6.287173,-20.60929,-38.08696,3,38
1.4987700000000002,-14.719551999999998,-5.9759269999999995,3,38
4.936844000000001,-19.177555,17.492037,3,38
5.0086699999999995,-9.591172,-1.522712,3,38
0.21069,-4.065354,1.5370780000000002,3,38
-0.47884,-12.210428,-0.301669,3,38
-0.153229,-10.213664,-1.7525560000000002,3,38
0.6272810000000001,-7.627927000000001,-3.270479,3,38
1.177947,-5.415684,-2.059013,3,38
3.466804,-5.406107,-2.633622,3,38
0.057461,-6.445191,-3.0693669999999997,3,38
5.88016,-6.900089,-3.509899,3,38
4.774039,-9.251195,-2.600103,3,38
0.766145,-4.089296,-0.833182,3,38
5.865794,-9.840169,-1.23062,3,38
-1.446098,-4.903325,-0.512359,3,38
2.600103,-7.929596000000001,0.5841850000000001,3,38
-1.766921,-5.295974,0.766145,3,38
0.430956,-7.699753,-0.579397,3,38
0.8475469999999999,-9.337387,-3.797204,3,38
-1.8579,-7.623138000000001,9.021352,3,38
0.272939,-11.860875,-2.9209259999999997,3,38
2.432509,-10.304645,-1.671153,3,39
0.588974,-5.999869,-2.327164,3,39
1.431733,-8.27436,-1.73819,3,39
-1.7860740000000002,-7.996633,-3.3279400000000003,3,39
0.885855,-11.468226,5.544971,3,39
-0.770933,-21.74414,-3.605668,3,39
6.670246000000001,-13.206416,-4.611232,3,39
0.675165,-17.343597,-7.225700999999999,3,39
7.771578999999999,-8.580819,12.650962,3,39
3.873819,-6.162675,-6.210559,3,39
3.193865,-12.392388,2.5953150000000003,3,39
4.9512089999999995,-25.828648,-7.991845,3,39
7.484275,-14.887146,2.973599,3,39
4.797981,-19.560625,-9.227253,3,39
-0.933739,-9.188946,10.007763,3,39
4.347871,-7.354987,-6.277597,3,39
5.061342,-13.785813,10.333375,3,39
2.499547,-4.788403,0.019154,3,39
5.923255,-18.195932,10.486604,3,39
2.5953150000000003,-7.762002000000001,-10.606314,3,39
-6.287173,-20.60929,-38.08696,3,39
1.4987700000000002,-14.719551999999998,-5.9759269999999995,3,39
4.936844000000001,-19.177555,17.492037,3,39
5.0086699999999995,-9.591172,-1.522712,3,39
0.21069,-4.065354,1.5370780000000002,3,39
-0.47884,-12.210428,-0.301669,3,39
-0.153229,-10.213664,-1.7525560000000002,3,39
0.6272810000000001,-7.627927000000001,-3.270479,3,39
1.177947,-5.415684,-2.059013,3,39
3.466804,-5.406107,-2.633622,3,39
0.665588,-6.809108999999999,-1.939303,3,40
-2.011129,-4.232949,-0.919373,3,40
2.432509,-10.304645,-1.671153,3,40
0.588974,-5.999869,-2.327164,3,40
1.431733,-8.27436,-1.73819,3,40
-1.7860740000000002,-7.996633,-3.3279400000000003,3,40
0.885855,-11.468226,5.544971,3,40
-0.770933,-21.74414,-3.605668,3,40
6.670246000000001,-13.206416,-4.611232,3,40
0.675165,-17.343597,-7.225700999999999,3,40
7.771578999999999,-8.580819,12.650962,3,40
3.873819,-6.162675,-6.210559,3,40
3.193865,-12.392388,2.5953150000000003,3,40
4.9512089999999995,-25.828648,-7.991845,3,40
7.484275,-14.887146,2.973599,3,40
4.797981,-19.560625,-9.227253,3,40
-0.933739,-9.188946,10.007763,3,40
4.347871,-7.354987,-6.277597,3,40
5.061342,-13.785813,10.333375,3,40
2.499547,-4.788403,0.019154,3,40
5.923255,-18.195932,10.486604,3,40
2.5953150000000003,-7.762002000000001,-10.606314,3,40
-6.287173,-20.60929,-38.08696,3,40
1.4987700000000002,-14.719551999999998,-5.9759269999999995,3,40
4.936844000000001,-19.177555,17.492037,3,40
5.0086699999999995,-9.591172,-1.522712,3,40
0.21069,-4.065354,1.5370780000000002,3,40
-0.47884,-12.210428,-0.301669,3,40
-0.153229,-10.213664,-1.7525560000000002,3,40
0.6272810000000001,-7.627927000000001,-3.270479,3,40
3.193865,-12.392388,2.5953150000000003,3,41
4.9512089999999995,-25.828648,-7.991845,3,41
7.484275,-14.887146,2.973599,3,41
4.797981,-19.560625,-9.227253,3,41
-0.933739,-9.188946,10.007763,3,41
4.347871,-7.354987,-6.277597,3,41
5.061342,-13.785813,10.333375,3,41
2.499547,-4.788403,0.019154,3,41
5.923255,-18.195932,10.486604,3,41
2.5953150000000003,-7.762002000000001,-10.606314,3,41
-6.287173,-20.60929,-38.08696,3,41
1.4987700000000002,-14.719551999999998,-5.9759269999999995,3,41
4.936844000000001,-19.177555,17.492037,3,41
5.0086699999999995,-9.591172,-1.522712,3,41
0.21069,-4.065354,1.5370780000000002,3,41
-0.47884,-12.210428,-0.301669,3,41
-0.153229,-10.213664,-1.7525560000000002,3,41
0.6272810000000001,-7.627927000000001,-3.270479,3,41
1.177947,-5.415684,-2.059013,3,41
3.466804,-5.406107,-2.633622,3,41
0.057461,-6.445191,-3.0693669999999997,3,41
5.88016,-6.900089,-3.509899,3,41
4.774039,-9.251195,-2.600103,3,41
0.766145,-4.089296,-0.833182,3,41
5.865794,-9.840169,-1.23062,3,41
-1.446098,-4.903325,-0.512359,3,41
2.600103,-7.929596000000001,0.5841850000000001,3,41
-1.766921,-5.295974,0.766145,3,41
0.430956,-7.699753,-0.579397,3,41
0.8475469999999999,-9.337387,-3.797204,3,41
-2.264915,-17.348385,-2.834735,3,42
-7.426813,1.345541,-2.6862939999999997,3,42
-0.694318,-15.030798,-5.501875,3,42
-0.632069,-14.848839000000002,-11.224017,3,42
3.782839,-11.597513,-2.94008,3,42
-0.507571,-5.104438,-2.111686,3,42
1.369483,-4.520251999999999,-2.863465,3,42
2.494758,-11.36767,-2.255338,3,42
2.054225,-5.640739,1.56102,3,42
-2.662352,-8.145074000000001,-5.1666870000000005,3,42
-3.318364,-8.346186999999999,1.551443,3,42
2.236184,-10.175357,3.4237089999999997,3,42
-9.528923,-19.484013,4.113238,3,42
-3.864241,-19.670761,-13.962984,3,42
1.963245,-10.242394,-2.3606830000000003,3,42
3.878607,-11.48738,-12.65575,3,42
3.026271,-8.432379,-7.244853999999999,3,42
-5.023035,-16.223110000000002,-12.464214,3,42
-0.4548979999999999,-14.882357999999998,-6.933608,3,42
9.035717,-13.206416,12.617443,3,42
-1.273715,-5.353435,-0.641646,3,42
-0.794875,-9.160215,-0.1819589999999999,3,42
2.336741,-11.722012,-1.321599,3,42
-6.1578870000000006,-1.489193,-0.54109,3,42
-6.904877000000001,-20.159178,-0.866701,3,42
-1.958457,-8.978256,-4.625597,3,42
0.196325,-2.643199,-0.114922,3,42
-1.728614,-4.9943040000000005,-1.192312,3,42
0.746991,-5.238512999999999,-1.043872,3,42
-1.197101,-3.68707,2.882619,3,42
-0.4548979999999999,-14.882357999999998,-6.933608,3,43
9.035717,-13.206416,12.617443,3,43
-1.273715,-5.353435,-0.641646,3,43
-0.794875,-9.160215,-0.1819589999999999,3,43
2.336741,-11.722012,-1.321599,3,43
-6.1578870000000006,-1.489193,-0.54109,3,43
-6.904877000000001,-20.159178,-0.866701,3,43
-1.958457,-8.978256,-4.625597,3,43
0.196325,-2.643199,-0.114922,3,43
-1.728614,-4.9943040000000005,-1.192312,3,43
0.746991,-5.238512999999999,-1.043872,3,43
-1.197101,-3.68707,2.882619,3,43
-0.344765,-9.696517,0.679953,3,43
-5.386954,-16.323667999999998,4.266468,3,43
-3.787627,-8.633492,0.895431,3,43
-2.30801,-13.445837,-2.834735,3,43
-0.545878,-3.653551999999999,6.670246000000001,3,43
2.844312,-10.486604,-1.580173,3,43
2.566584,-10.323798,-1.16837,3,43
2.63841,-7.168239999999999,-0.71826,3,43
3.907337,-4.984728,-3.821146,3,43
0.354342,-9.56723,-5.7700260000000005,3,43
0.9912,-10.290278,-5.099648999999999,3,43
-2.389413,-12.220005,-6.330269,3,43
-1.7860740000000002,-18.737022,6.244078,3,43
4.644751,-11.018116,-1.04866,3,43
-2.269703,-2.782062,2.39899,3,43
1.479617,-9.251195,-0.857124,3,43
5.152323,-11.702858,-2.27928,3,43
1.637634,-22.720974,-10.491392,3,43
-7.254430999999999,-15.102624,-2.801216,3,44
0.588974,-22.117635999999997,-28.031313,3,44
1.3982139999999998,-12.497733,-4.213794999999999,3,44
1.762132,-15.083470000000002,-7.560889,3,44
5.185841,-13.52724,-2.365471,3,44
-1.474828,0.526724,0.038307,3,44
0.086191,-10.16578,-0.565032,3,44
0.052672,-17.745823,-3.203442,3,44
-7.939172,-14.302960999999998,-13.10586,3,44
-2.48997,-8.829816000000001,3.193865,3,44
0.871489,-11.013328,0.885855,3,44
2.6862939999999997,-8.963891,-3.883395,3,44
1.197101,-10.400413,-6.23929,3,44
-4.3478699999999995,-6.133945,-2.020706,3,44
1.714248,-11.219229,1.063026,3,44
-1.94888,-3.064578,-2.513912,3,44
1.225831,-5.5545480000000005,-2.317587,3,44
0.21069,-10.802638,-1.599327,3,44
2.7389669999999997,-8.657434,4.031836,3,44
4.094085,-11.401189,-0.651223,3,44
1.647211,-8.207322999999999,-8.537724,3,44
0.277727,-7.067683000000001,-4.893748,3,44
1.364695,-8.528147,-6.382941000000001,3,44
9.141062,-9.184157,0.42138,3,44
7.953538000000001,-14.413095000000002,-2.494758,3,44
0.651223,-1.40779,4.683059,3,44
2.418144,4.994305000000001,13.445837,3,44
0.670377,4.730943,8.403648,3,44
0.866701,3.4428620000000003,9.495404,3,44
1.479617,4.3143519999999995,6.737284,3,44
-0.344765,-9.696517,0.679953,3,45
-5.386954,-16.323667999999998,4.266468,3,45
-3.787627,-8.633492,0.895431,3,45
-2.30801,-13.445837,-2.834735,3,45
-0.545878,-3.653551999999999,6.670246000000001,3,45
2.844312,-10.486604,-1.580173,3,45
2.566584,-10.323798,-1.16837,3,45
2.63841,-7.168239999999999,-0.71826,3,45
3.907337,-4.984728,-3.821146,3,45
0.354342,-9.56723,-5.7700260000000005,3,45
0.9912,-10.290278,-5.099648999999999,3,45
-2.389413,-12.220005,-6.330269,3,45
-1.7860740000000002,-18.737022,6.244078,3,45
4.644751,-11.018116,-1.04866,3,45
-2.269703,-2.782062,2.39899,3,45
1.479617,-9.251195,-0.857124,3,45
5.152323,-11.702858,-2.27928,3,45
1.637634,-22.720974,-10.491392,3,45
-2.346318,-3.270479,1.063026,3,45
-1.685518,-7.580042,-1.623269,3,45
-1.80044,-7.465121000000001,-3.0693669999999997,3,45
-0.124498,-12.559982000000002,6.7516490000000005,3,45
1.7525560000000002,-17.501614,-3.801992,3,45
2.331953,-9.744401,-7.407660000000001,3,45
3.222596,-8.920795,-3.08852,3,45
-3.4572269999999996,-2.715025,0.148441,3,45
2.264915,-9.931149,-4.659116,3,45
0.9912,-10.903194,-8.183380999999999,3,45
2.226608,-8.044516999999999,-2.341529,3,45
-1.647211,-11.851298,6.775591,3,45
6.301539,-1.154005,0.067038,3,46
4.534618,-5.755661,-1.369483,3,46
4.563349,-3.730166000000001,-0.02873,3,46
-0.972046,-6.660669,-2.954445,3,46
-2.8682540000000003,-5.4970870000000005,0.23942,3,46
2.767697,-4.932055,0.110133,3,46
2.470816,-7.718906,2.949657,3,46
4.941633,-6.833050999999999,-1.6998830000000005,3,46
1.1683709999999998,-9.816227,1.910573,3,46
8.073248,-5.856217,-1.359906,3,46
3.366248,-16.82645,1.1683709999999998,3,46
7.015011,-16.845604,-7.517792999999999,3,46
4.697424,-9.074024,-0.866701,3,46
-1.5466540000000002,-1.508347,0.3304,3,46
3.830723,-12.014104,-1.158794,3,46
2.418144,-9.002198,0.8236049999999999,3,46
3.529053,-7.436389999999999,1.905785,3,46
0.986411,-17.3005,-0.3830719999999999,3,46
-4.582502,-7.862558,9.792285,3,46
1.910573,-5.985504,-1.599327,3,46
4.458004,-6.914453999999999,-5.401319,3,46
2.475605,-8.705316999999999,-0.3734949999999999,3,46
-1.120486,-5.803545,2.044648,3,46
-2.39899,-8.451532,4.055778,3,46
5.64074,-8.566454,1.029507,3,46
-0.8283940000000001,-0.483629,10.582372,3,46
4.491523,-7.393294999999999,-1.58975,3,46
4.97994,-10.127473,-14.422671,3,46
1.106121,-7.1155669999999995,2.240973,3,46
1.355118,-8.667010000000001,1.479617,3,46
1.273715,-6.502651,-3.5721489999999996,3,47
0.7230489999999999,-6.871359,-4.079719,3,47
2.226608,-7.575253999999999,-12.555194,3,47
3.284845,-11.96622,-3.892972,3,47
3.945645,-11.760319,-8.09719,3,47
2.801216,-9.32781,-5.133168,3,47
-1.35033,-3.380613,-0.057461,3,47
-0.253785,-6.373365,0.205901,3,47
-1.608903,-6.502651,-3.998317,3,47
1.685518,-10.146626,-1.115698,3,47
-0.474052,-4.13718,-1.249773,3,47
-0.761356,-9.203311,-2.1787229999999997,3,47
-1.278504,-4.1419690000000005,0.253785,3,47
-0.3304,-6.105214,-3.284845,3,47
1.455675,-7.479486,-3.864241,3,47
1.613692,-9.150639,-4.151545,3,47
1.216255,-9.792285,0.636858,3,47
-2.54743,-7.086836999999999,-2.585738,3,47
-1.206678,-9.433155,-2.202665,3,47
-3.1028849999999997,-4.644751,-2.456451,3,47
0.282516,-9.251195,-0.933739,3,47
-3.20823,-4.711789,0.885855,3,47
2.418144,-8.571242,-1.675941,3,47
-5.861006,-6.397307,-3.3758239999999997,3,47
2.959233,-6.081272,-3.136404,3,47
-7.805097,-8.365341,-2.130839,3,47
-0.842759,-6.119579,-1.61848,3,47
-1.814805,-7.259219,-1.043872,3,47
-0.617704,-6.301539,-1.067814,3,47
-1.685518,-8.403648,0.550666,3,47
1.7525560000000002,-17.501614,-3.801992,3,48
2.331953,-9.744401,-7.407660000000001,3,48
3.222596,-8.920795,-3.08852,3,48
-3.4572269999999996,-2.715025,0.148441,3,48
2.264915,-9.931149,-4.659116,3,48
0.9912,-10.903194,-8.183380999999999,3,48
2.226608,-8.044516999999999,-2.341529,3,48
-1.647211,-11.851298,6.775591,3,48
8.39886,-13.771448,-2.566584,3,48
2.494758,-10.328587,-8.690952000000001,3,48
0.8236049999999999,-7.383717999999999,-3.5960910000000004,3,48
-6.224924,-12.23437,-26.230873,3,48
1.273715,-6.502651,-3.5721489999999996,3,48
0.7230489999999999,-6.871359,-4.079719,3,48
2.226608,-7.575253999999999,-12.555194,3,48
3.284845,-11.96622,-3.892972,3,48
3.945645,-11.760319,-8.09719,3,48
2.801216,-9.32781,-5.133168,3,48
-1.35033,-3.380613,-0.057461,3,48
-0.253785,-6.373365,0.205901,3,48
-1.608903,-6.502651,-3.998317,3,48
1.685518,-10.146626,-1.115698,3,48
-0.474052,-4.13718,-1.249773,3,48
-0.761356,-9.203311,-2.1787229999999997,3,48
-1.278504,-4.1419690000000005,0.253785,3,48
-0.3304,-6.105214,-3.284845,3,48
1.455675,-7.479486,-3.864241,3,48
1.613692,-9.150639,-4.151545,3,48
1.216255,-9.792285,0.636858,3,48
-2.54743,-7.086836999999999,-2.585738,3,48
-4.10845,-9.32781,0.21069,3,49
-4.223372,-17.922995,-4.654328,3,49
-8.825027,-12.411542,-3.476381,3,49
-3.557784,-5.492298,-0.1005559999999999,3,49
-3.998317,-14.302960999999998,-0.919373,3,49
-1.297657,-1.517924,-2.149993,3,49
-5.736507,-15.35641,-1.039083,3,49
1.024718,-3.825934,-3.1795,3,49
-1.94888,-14.389153,-3.08852,3,49
-3.203442,-1.072602,-0.071826,3,49
-6.8426279999999995,-6.809108999999999,-1.934515,3,49
-4.984728,-8.633492,-2.906561,3,49
-2.911349,-8.556877,-1.848324,3,49
-3.002329,-13.148955,0.646435,3,49
-5.06613,-9.428367,0.732626,3,49
-8.614338,-15.021221,-1.436521,3,49
0.349553,-6.5792660000000005,-6.995857000000001,3,49
-2.9209259999999997,-10.726024,-0.148441,3,49
-3.653551999999999,-10.951078,-4.003105000000001,3,49
-9.332599,-18.492813,-6.440402,3,49
-5.755661,-13.891158,1.273715,3,49
-7.196969999999999,-11.358092999999998,1.685518,3,49
-10.036493,-12.765883,-0.6464340000000001,3,49
-0.158017,-2.930503,-7.479486,3,49
-2.604891,-7.661445,-0.11971,3,49
-1.40779,-13.340492,-3.916914,3,49
-2.255338,-14.398729,-2.801216,3,49
-7.517792999999999,-11.947066,-1.656788,3,49
-1.996764,1.393425,2.652776,3,49
-4.189853,-10.275913,1.1300629999999998,3,49
1.996764,-6.062118,-6.210559,3,50
3.438074,-7.139508999999999,0.292093,3,50
12.650962,1.61848,10.716447,3,50
7.402872,-7.771578999999999,-4.127603,3,50
2.9209259999999997,-8.571242,-7.881711999999999,3,50
2.767697,-8.935161,-2.149993,3,50
-1.101333,-13.939042,-0.948104,3,50
1.532289,-6.2153480000000005,-5.928043,3,50
2.652776,-5.865794,-3.227384,3,50
-0.737414,-3.86903,-1.4987700000000002,3,50
3.677494,-6.8761470000000005,-2.782062,3,50
0.612916,-3.744531,-0.507571,3,50
0.052672,-8.403648,-4.185065,3,50
-1.843535,-3.892972,-1.929727,3,50
0.665588,-6.809108999999999,-1.939303,3,50
-2.011129,-4.232949,-0.919373,3,50
2.432509,-10.304645,-1.671153,3,50
0.588974,-5.999869,-2.327164,3,50
1.431733,-8.27436,-1.73819,3,50
-1.7860740000000002,-7.996633,-3.3279400000000003,3,50
0.885855,-11.468226,5.544971,3,50
-0.770933,-21.74414,-3.605668,3,50
6.670246000000001,-13.206416,-4.611232,3,50
0.675165,-17.343597,-7.225700999999999,3,50
7.771578999999999,-8.580819,12.650962,3,50
3.873819,-6.162675,-6.210559,3,50
3.193865,-12.392388,2.5953150000000003,3,50
4.9512089999999995,-25.828648,-7.991845,3,50
7.484275,-14.887146,2.973599,3,50
4.797981,-19.560625,-9.227253,3,50
6.789956,-6.947972999999999,-3.007117,3,51
0.933739,-4.606444000000001,-0.512359,3,51
3.2896330000000003,-7.469909,-0.0430959999999999,3,51
-1.6519990000000002,-17.535133,-2.2505490000000004,3,51
-6.320692,-6.196194,1.896208,3,51
-1.331176,-17.956512,-0.632069,3,51
12.133814,-18.703505,-7.508216,3,51
6.588842999999999,-10.568007,-2.60968,3,51
7.996633999999999,-5.918466,-6.646304,3,51
0.2585739999999999,-8.657434,-2.351106,3,51
-1.94888,-5.003881,2.006341,3,51
1.364695,-8.054094000000001,-3.222595,3,51
2.0302830000000003,-13.613431,-2.0302830000000003,3,51
12.411542,-13.881581,-4.386177,3,51
4.879383,-13.110648,-3.5960910000000004,3,51
1.201889,-17.908628,0.004788,3,51
-6.847417,-16.74026,4.13718,3,51
-4.003105000000001,1.249773,10.716447,3,51
3.0502130000000003,-11.482592,-4.683058,3,51
8.532935,-14.571112,-11.492168,3,51
2.1883,-8.987833,-1.273715,3,51
1.101333,-3.648763,0.416591,3,51
4.276045,-9.346964,0.502782,3,51
-3.77805,-3.605668,2.475605,3,51
2.236184,-7.388506,-1.173159,3,51
-4.094085,-1.441309,2.13084,3,51
2.011129,-12.564771,0.8236049999999999,3,51
-0.071826,-13.733141,2.652776,3,51
1.996764,-6.062118,-6.210559,3,51
3.438074,-7.139508999999999,0.292093,3,51
-4.649539,-15.05474,1.192313,3,52
4.242526,-16.539145,-10.836157,3,52
6.789956,-6.947972999999999,-3.007117,3,52
0.933739,-4.606444000000001,-0.512359,3,52
3.2896330000000003,-7.469909,-0.0430959999999999,3,52
-1.6519990000000002,-17.535133,-2.2505490000000004,3,52
-6.320692,-6.196194,1.896208,3,52
-1.331176,-17.956512,-0.632069,3,52
12.133814,-18.703505,-7.508216,3,52
6.588842999999999,-10.568007,-2.60968,3,52
7.996633999999999,-5.918466,-6.646304,3,52
0.2585739999999999,-8.657434,-2.351106,3,52
-1.94888,-5.003881,2.006341,3,52
1.364695,-8.054094000000001,-3.222595,3,52
2.0302830000000003,-13.613431,-2.0302830000000003,3,52
12.411542,-13.881581,-4.386177,3,52
4.879383,-13.110648,-3.5960910000000004,3,52
1.201889,-17.908628,0.004788,3,52
-6.847417,-16.74026,4.13718,3,52
-4.003105000000001,1.249773,10.716447,3,52
3.0502130000000003,-11.482592,-4.683058,3,52
8.532935,-14.571112,-11.492168,3,52
2.1883,-8.987833,-1.273715,3,52
1.101333,-3.648763,0.416591,3,52
4.276045,-9.346964,0.502782,3,52
-3.77805,-3.605668,2.475605,3,52
2.236184,-7.388506,-1.173159,3,52
-4.094085,-1.441309,2.13084,3,52
2.011129,-12.564771,0.8236049999999999,3,52
-0.071826,-13.733141,2.652776,3,52
2.011129,-12.564771,0.8236049999999999,3,53
-0.071826,-13.733141,2.652776,3,53
1.996764,-6.062118,-6.210559,3,53
3.438074,-7.139508999999999,0.292093,3,53
12.650962,1.61848,10.716447,3,53
7.402872,-7.771578999999999,-4.127603,3,53
2.9209259999999997,-8.571242,-7.881711999999999,3,53
2.767697,-8.935161,-2.149993,3,53
-1.101333,-13.939042,-0.948104,3,53
1.532289,-6.2153480000000005,-5.928043,3,53
2.652776,-5.865794,-3.227384,3,53
-0.737414,-3.86903,-1.4987700000000002,3,53
3.677494,-6.8761470000000005,-2.782062,3,53
0.612916,-3.744531,-0.507571,3,53
0.052672,-8.403648,-4.185065,3,53
-1.843535,-3.892972,-1.929727,3,53
0.665588,-6.809108999999999,-1.939303,3,53
-2.011129,-4.232949,-0.919373,3,53
2.432509,-10.304645,-1.671153,3,53
0.588974,-5.999869,-2.327164,3,53
1.431733,-8.27436,-1.73819,3,53
-1.7860740000000002,-7.996633,-3.3279400000000003,3,53
0.885855,-11.468226,5.544971,3,53
-0.770933,-21.74414,-3.605668,3,53
6.670246000000001,-13.206416,-4.611232,3,53
0.675165,-17.343597,-7.225700999999999,3,53
7.771578999999999,-8.580819,12.650962,3,53
3.873819,-6.162675,-6.210559,3,53
3.193865,-12.392388,2.5953150000000003,3,53
4.9512089999999995,-25.828648,-7.991845,3,53
-8.825027,-12.411542,-3.476381,3,54
-3.557784,-5.492298,-0.1005559999999999,3,54
-3.998317,-14.302960999999998,-0.919373,3,54
-1.297657,-1.517924,-2.149993,3,54
-5.736507,-15.35641,-1.039083,3,54
1.024718,-3.825934,-3.1795,3,54
-1.94888,-14.389153,-3.08852,3,54
-3.203442,-1.072602,-0.071826,3,54
-6.8426279999999995,-6.809108999999999,-1.934515,3,54
-4.984728,-8.633492,-2.906561,3,54
-2.911349,-8.556877,-1.848324,3,54
-3.002329,-13.148955,0.646435,3,54
-5.06613,-9.428367,0.732626,3,54
-8.614338,-15.021221,-1.436521,3,54
0.349553,-6.5792660000000005,-6.995857000000001,3,54
-2.9209259999999997,-10.726024,-0.148441,3,54
-3.653551999999999,-10.951078,-4.003105000000001,3,54
-9.332599,-18.492813,-6.440402,3,54
-5.755661,-13.891158,1.273715,3,54
-7.196969999999999,-11.358092999999998,1.685518,3,54
-10.036493,-12.765883,-0.6464340000000001,3,54
-0.158017,-2.930503,-7.479486,3,54
-2.604891,-7.661445,-0.11971,3,54
-1.40779,-13.340492,-3.916914,3,54
-2.255338,-14.398729,-2.801216,3,54
-7.517792999999999,-11.947066,-1.656788,3,54
-1.996764,1.393425,2.652776,3,54
-4.189853,-10.275913,1.1300629999999998,3,54
0.8379709999999999,-11.693281,-1.1300629999999998,3,54
-3.122039,-11.985373,-1.393425,3,54
3.222596,-8.920795,-3.08852,3,55
-3.4572269999999996,-2.715025,0.148441,3,55
2.264915,-9.931149,-4.659116,3,55
0.9912,-10.903194,-8.183380999999999,3,55
2.226608,-8.044516999999999,-2.341529,3,55
-1.647211,-11.851298,6.775591,3,55
8.39886,-13.771448,-2.566584,3,55
2.494758,-10.328587,-8.690952000000001,3,55
0.8236049999999999,-7.383717999999999,-3.5960910000000004,3,55
-6.224924,-12.23437,-26.230873,3,55
1.273715,-6.502651,-3.5721489999999996,3,55
0.7230489999999999,-6.871359,-4.079719,3,55
2.226608,-7.575253999999999,-12.555194,3,55
3.284845,-11.96622,-3.892972,3,55
3.945645,-11.760319,-8.09719,3,55
2.801216,-9.32781,-5.133168,3,55
-1.35033,-3.380613,-0.057461,3,55
-0.253785,-6.373365,0.205901,3,55
-1.608903,-6.502651,-3.998317,3,55
1.685518,-10.146626,-1.115698,3,55
-0.474052,-4.13718,-1.249773,3,55
-0.761356,-9.203311,-2.1787229999999997,3,55
-1.278504,-4.1419690000000005,0.253785,3,55
-0.3304,-6.105214,-3.284845,3,55
1.455675,-7.479486,-3.864241,3,55
1.613692,-9.150639,-4.151545,3,55
1.216255,-9.792285,0.636858,3,55
-2.54743,-7.086836999999999,-2.585738,3,55
-1.206678,-9.433155,-2.202665,3,55
-3.1028849999999997,-4.644751,-2.456451,3,55
2.226608,-7.575253999999999,-12.555194,3,56
3.284845,-11.96622,-3.892972,3,56
3.945645,-11.760319,-8.09719,3,56
2.801216,-9.32781,-5.133168,3,56
-1.35033,-3.380613,-0.057461,3,56
-0.253785,-6.373365,0.205901,3,56
-1.608903,-6.502651,-3.998317,3,56
1.685518,-10.146626,-1.115698,3,56
-0.474052,-4.13718,-1.249773,3,56
-0.761356,-9.203311,-2.1787229999999997,3,56
-1.278504,-4.1419690000000005,0.253785,3,56
-0.3304,-6.105214,-3.284845,3,56
1.455675,-7.479486,-3.864241,3,56
1.613692,-9.150639,-4.151545,3,56
1.216255,-9.792285,0.636858,3,56
-2.54743,-7.086836999999999,-2.585738,3,56
-1.206678,-9.433155,-2.202665,3,56
-3.1028849999999997,-4.644751,-2.456451,3,56
0.282516,-9.251195,-0.933739,3,56
-3.20823,-4.711789,0.885855,3,56
2.418144,-8.571242,-1.675941,3,56
-5.861006,-6.397307,-3.3758239999999997,3,56
2.959233,-6.081272,-3.136404,3,56
-7.805097,-8.365341,-2.130839,3,56
-0.842759,-6.119579,-1.61848,3,56
-1.814805,-7.259219,-1.043872,3,56
-0.617704,-6.301539,-1.067814,3,56
-1.685518,-8.403648,0.550666,3,56
2.48997,-15.964537,-0.8379709999999999,3,56
-0.483629,-15.078682,-6.253655,3,56
4.563349,-3.730166000000001,-0.02873,3,57
-0.972046,-6.660669,-2.954445,3,57
-2.8682540000000003,-5.4970870000000005,0.23942,3,57
2.767697,-4.932055,0.110133,3,57
2.470816,-7.718906,2.949657,3,57
4.941633,-6.833050999999999,-1.6998830000000005,3,57
1.1683709999999998,-9.816227,1.910573,3,57
8.073248,-5.856217,-1.359906,3,57
3.366248,-16.82645,1.1683709999999998,3,57
7.015011,-16.845604,-7.517792999999999,3,57
4.697424,-9.074024,-0.866701,3,57
-1.5466540000000002,-1.508347,0.3304,3,57
3.830723,-12.014104,-1.158794,3,57
2.418144,-9.002198,0.8236049999999999,3,57
3.529053,-7.436389999999999,1.905785,3,57
0.986411,-17.3005,-0.3830719999999999,3,57
-4.582502,-7.862558,9.792285,3,57
1.910573,-5.985504,-1.599327,3,57
4.458004,-6.914453999999999,-5.401319,3,57
2.475605,-8.705316999999999,-0.3734949999999999,3,57
-1.120486,-5.803545,2.044648,3,57
-2.39899,-8.451532,4.055778,3,57
5.64074,-8.566454,1.029507,3,57
-0.8283940000000001,-0.483629,10.582372,3,57
4.491523,-7.393294999999999,-1.58975,3,57
4.97994,-10.127473,-14.422671,3,57
1.106121,-7.1155669999999995,2.240973,3,57
1.355118,-8.667010000000001,1.479617,3,57
2.149993,-7.474697,5.93762,3,57
8.288725999999999,-10.783484,-3.165135,3,57
6.7277070000000005,2.973599,3.936068,3,58
7.891289,0.440533,-3.342306,3,58
6.301539,-1.154005,0.067038,3,58
4.534618,-5.755661,-1.369483,3,58
4.563349,-3.730166000000001,-0.02873,3,58
-0.972046,-6.660669,-2.954445,3,58
-2.8682540000000003,-5.4970870000000005,0.23942,3,58
2.767697,-4.932055,0.110133,3,58
2.470816,-7.718906,2.949657,3,58
4.941633,-6.833050999999999,-1.6998830000000005,3,58
1.1683709999999998,-9.816227,1.910573,3,58
8.073248,-5.856217,-1.359906,3,58
3.366248,-16.82645,1.1683709999999998,3,58
7.015011,-16.845604,-7.517792999999999,3,58
4.697424,-9.074024,-0.866701,3,58
-1.5466540000000002,-1.508347,0.3304,3,58
3.830723,-12.014104,-1.158794,3,58
2.418144,-9.002198,0.8236049999999999,3,58
3.529053,-7.436389999999999,1.905785,3,58
0.986411,-17.3005,-0.3830719999999999,3,58
-4.582502,-7.862558,9.792285,3,58
1.910573,-5.985504,-1.599327,3,58
4.458004,-6.914453999999999,-5.401319,3,58
2.475605,-8.705316999999999,-0.3734949999999999,3,58
-1.120486,-5.803545,2.044648,3,58
-2.39899,-8.451532,4.055778,3,58
5.64074,-8.566454,1.029507,3,58
-0.8283940000000001,-0.483629,10.582372,3,58
4.491523,-7.393294999999999,-1.58975,3,58
4.97994,-10.127473,-14.422671,3,58
2.226608,-8.044516999999999,-2.341529,3,59
-1.647211,-11.851298,6.775591,3,59
8.39886,-13.771448,-2.566584,3,59
2.494758,-10.328587,-8.690952000000001,3,59
0.8236049999999999,-7.383717999999999,-3.5960910000000004,3,59
-6.224924,-12.23437,-26.230873,3,59
1.273715,-6.502651,-3.5721489999999996,3,59
0.7230489999999999,-6.871359,-4.079719,3,59
2.226608,-7.575253999999999,-12.555194,3,59
3.284845,-11.96622,-3.892972,3,59
3.945645,-11.760319,-8.09719,3,59
2.801216,-9.32781,-5.133168,3,59
-1.35033,-3.380613,-0.057461,3,59
-0.253785,-6.373365,0.205901,3,59
-1.608903,-6.502651,-3.998317,3,59
1.685518,-10.146626,-1.115698,3,59
-0.474052,-4.13718,-1.249773,3,59
-0.761356,-9.203311,-2.1787229999999997,3,59
-1.278504,-4.1419690000000005,0.253785,3,59
-0.3304,-6.105214,-3.284845,3,59
1.455675,-7.479486,-3.864241,3,59
1.613692,-9.150639,-4.151545,3,59
1.216255,-9.792285,0.636858,3,59
-2.54743,-7.086836999999999,-2.585738,3,59
-1.206678,-9.433155,-2.202665,3,59
-3.1028849999999997,-4.644751,-2.456451,3,59
0.282516,-9.251195,-0.933739,3,59
-3.20823,-4.711789,0.885855,3,59
2.418144,-8.571242,-1.675941,3,59
-5.861006,-6.397307,-3.3758239999999997,3,59
-1.35033,-3.380613,-0.057461,3,60
-0.253785,-6.373365,0.205901,3,60
-1.608903,-6.502651,-3.998317,3,60
1.685518,-10.146626,-1.115698,3,60
-0.474052,-4.13718,-1.249773,3,60
-0.761356,-9.203311,-2.1787229999999997,3,60
-1.278504,-4.1419690000000005,0.253785,3,60
-0.3304,-6.105214,-3.284845,3,60
1.455675,-7.479486,-3.864241,3,60
1.613692,-9.150639,-4.151545,3,60
1.216255,-9.792285,0.636858,3,60
-2.54743,-7.086836999999999,-2.585738,3,60
-1.206678,-9.433155,-2.202665,3,60
-3.1028849999999997,-4.644751,-2.456451,3,60
0.282516,-9.251195,-0.933739,3,60
-3.20823,-4.711789,0.885855,3,60
2.418144,-8.571242,-1.675941,3,60
-5.861006,-6.397307,-3.3758239999999997,3,60
2.959233,-6.081272,-3.136404,3,60
-7.805097,-8.365341,-2.130839,3,60
-0.842759,-6.119579,-1.61848,3,60
-1.814805,-7.259219,-1.043872,3,60
-0.617704,-6.301539,-1.067814,3,60
-1.685518,-8.403648,0.550666,3,60
2.48997,-15.964537,-0.8379709999999999,3,60
-0.483629,-15.078682,-6.253655,3,60
-2.633622,-17.927782,-5.453991,3,60
-2.312799,-15.825673000000002,9.706094,3,60
-0.6272810000000001,-14.772224,-5.3821650000000005,3,60
2.4660279999999997,-6.856992999999999,-4.477157,3,60
6.952762,-11.247959,0.344765,3,61
6.895301,-13.982138,-2.504335,3,61
-1.417367,-19.349937,0.177171,3,61
0.320823,-3.715801,-9.653421,3,61
-4.649539,-15.05474,1.192313,3,61
4.242526,-16.539145,-10.836157,3,61
6.789956,-6.947972999999999,-3.007117,3,61
0.933739,-4.606444000000001,-0.512359,3,61
3.2896330000000003,-7.469909,-0.0430959999999999,3,61
-1.6519990000000002,-17.535133,-2.2505490000000004,3,61
-6.320692,-6.196194,1.896208,3,61
-1.331176,-17.956512,-0.632069,3,61
12.133814,-18.703505,-7.508216,3,61
6.588842999999999,-10.568007,-2.60968,3,61
7.996633999999999,-5.918466,-6.646304,3,61
0.2585739999999999,-8.657434,-2.351106,3,61
-1.94888,-5.003881,2.006341,3,61
1.364695,-8.054094000000001,-3.222595,3,61
2.0302830000000003,-13.613431,-2.0302830000000003,3,61
12.411542,-13.881581,-4.386177,3,61
4.879383,-13.110648,-3.5960910000000004,3,61
1.201889,-17.908628,0.004788,3,61
-6.847417,-16.74026,4.13718,3,61
-4.003105000000001,1.249773,10.716447,3,61
3.0502130000000003,-11.482592,-4.683058,3,61
8.532935,-14.571112,-11.492168,3,61
2.1883,-8.987833,-1.273715,3,61
1.101333,-3.648763,0.416591,3,61
4.276045,-9.346964,0.502782,3,61
-3.77805,-3.605668,2.475605,3,61
4.276045,-9.346964,0.502782,3,62
-3.77805,-3.605668,2.475605,3,62
2.236184,-7.388506,-1.173159,3,62
-4.094085,-1.441309,2.13084,3,62
2.011129,-12.564771,0.8236049999999999,3,62
-0.071826,-13.733141,2.652776,3,62
1.996764,-6.062118,-6.210559,3,62
3.438074,-7.139508999999999,0.292093,3,62
12.650962,1.61848,10.716447,3,62
7.402872,-7.771578999999999,-4.127603,3,62
2.9209259999999997,-8.571242,-7.881711999999999,3,62
2.767697,-8.935161,-2.149993,3,62
-1.101333,-13.939042,-0.948104,3,62
1.532289,-6.2153480000000005,-5.928043,3,62
2.652776,-5.865794,-3.227384,3,62
-0.737414,-3.86903,-1.4987700000000002,3,62
3.677494,-6.8761470000000005,-2.782062,3,62
0.612916,-3.744531,-0.507571,3,62
0.052672,-8.403648,-4.185065,3,62
-1.843535,-3.892972,-1.929727,3,62
0.665588,-6.809108999999999,-1.939303,3,62
-2.011129,-4.232949,-0.919373,3,62
2.432509,-10.304645,-1.671153,3,62
0.588974,-5.999869,-2.327164,3,62
1.431733,-8.27436,-1.73819,3,62
-1.7860740000000002,-7.996633,-3.3279400000000003,3,62
0.885855,-11.468226,5.544971,3,62
-0.770933,-21.74414,-3.605668,3,62
6.670246000000001,-13.206416,-4.611232,3,62
0.675165,-17.343597,-7.225700999999999,3,62
2.236184,-7.388506,-1.173159,3,63
-4.094085,-1.441309,2.13084,3,63
2.011129,-12.564771,0.8236049999999999,3,63
-0.071826,-13.733141,2.652776,3,63
1.996764,-6.062118,-6.210559,3,63
3.438074,-7.139508999999999,0.292093,3,63
12.650962,1.61848,10.716447,3,63
7.402872,-7.771578999999999,-4.127603,3,63
2.9209259999999997,-8.571242,-7.881711999999999,3,63
2.767697,-8.935161,-2.149993,3,63
-1.101333,-13.939042,-0.948104,3,63
1.532289,-6.2153480000000005,-5.928043,3,63
2.652776,-5.865794,-3.227384,3,63
-0.737414,-3.86903,-1.4987700000000002,3,63
3.677494,-6.8761470000000005,-2.782062,3,63
0.612916,-3.744531,-0.507571,3,63
0.052672,-8.403648,-4.185065,3,63
-1.843535,-3.892972,-1.929727,3,63
0.665588,-6.809108999999999,-1.939303,3,63
-2.011129,-4.232949,-0.919373,3,63
2.432509,-10.304645,-1.671153,3,63
0.588974,-5.999869,-2.327164,3,63
1.431733,-8.27436,-1.73819,3,63
-1.7860740000000002,-7.996633,-3.3279400000000003,3,63
0.885855,-11.468226,5.544971,3,63
-0.770933,-21.74414,-3.605668,3,63
6.670246000000001,-13.206416,-4.611232,3,63
0.675165,-17.343597,-7.225700999999999,3,63
7.771578999999999,-8.580819,12.650962,3,63
3.873819,-6.162675,-6.210559,3,63
-1.417367,-19.349937,0.177171,3,64
0.320823,-3.715801,-9.653421,3,64
-4.649539,-15.05474,1.192313,3,64
4.242526,-16.539145,-10.836157,3,64
6.789956,-6.947972999999999,-3.007117,3,64
0.933739,-4.606444000000001,-0.512359,3,64
3.2896330000000003,-7.469909,-0.0430959999999999,3,64
-1.6519990000000002,-17.535133,-2.2505490000000004,3,64
-6.320692,-6.196194,1.896208,3,64
-1.331176,-17.956512,-0.632069,3,64
12.133814,-18.703505,-7.508216,3,64
6.588842999999999,-10.568007,-2.60968,3,64
7.996633999999999,-5.918466,-6.646304,3,64
0.2585739999999999,-8.657434,-2.351106,3,64
-1.94888,-5.003881,2.006341,3,64
1.364695,-8.054094000000001,-3.222595,3,64
2.0302830000000003,-13.613431,-2.0302830000000003,3,64
12.411542,-13.881581,-4.386177,3,64
4.879383,-13.110648,-3.5960910000000004,3,64
1.201889,-17.908628,0.004788,3,64
-6.847417,-16.74026,4.13718,3,64
-4.003105000000001,1.249773,10.716447,3,64
3.0502130000000003,-11.482592,-4.683058,3,64
8.532935,-14.571112,-11.492168,3,64
2.1883,-8.987833,-1.273715,3,64
1.101333,-3.648763,0.416591,3,64
4.276045,-9.346964,0.502782,3,64
-3.77805,-3.605668,2.475605,3,64
2.236184,-7.388506,-1.173159,3,64
-4.094085,-1.441309,2.13084,3,64
3.945645,-11.760319,-8.09719,3,65
2.801216,-9.32781,-5.133168,3,65
-1.35033,-3.380613,-0.057461,3,65
-0.253785,-6.373365,0.205901,3,65
-1.608903,-6.502651,-3.998317,3,65
1.685518,-10.146626,-1.115698,3,65
-0.474052,-4.13718,-1.249773,3,65
-0.761356,-9.203311,-2.1787229999999997,3,65
-1.278504,-4.1419690000000005,0.253785,3,65
-0.3304,-6.105214,-3.284845,3,65
1.455675,-7.479486,-3.864241,3,65
1.613692,-9.150639,-4.151545,3,65
1.216255,-9.792285,0.636858,3,65
-2.54743,-7.086836999999999,-2.585738,3,65
-1.206678,-9.433155,-2.202665,3,65
-3.1028849999999997,-4.644751,-2.456451,3,65
0.282516,-9.251195,-0.933739,3,65
-3.20823,-4.711789,0.885855,3,65
2.418144,-8.571242,-1.675941,3,65
-5.861006,-6.397307,-3.3758239999999997,3,65
2.959233,-6.081272,-3.136404,3,65
-7.805097,-8.365341,-2.130839,3,65
-0.842759,-6.119579,-1.61848,3,65
-1.814805,-7.259219,-1.043872,3,65
-0.617704,-6.301539,-1.067814,3,65
-1.685518,-8.403648,0.550666,3,65
2.48997,-15.964537,-0.8379709999999999,3,65
-0.483629,-15.078682,-6.253655,3,65
-2.633622,-17.927782,-5.453991,3,65
-2.312799,-15.825673000000002,9.706094,3,65
2.264915,-9.931149,-4.659116,3,66
0.9912,-10.903194,-8.183380999999999,3,66
2.226608,-8.044516999999999,-2.341529,3,66
-1.647211,-11.851298,6.775591,3,66
8.39886,-13.771448,-2.566584,3,66
2.494758,-10.328587,-8.690952000000001,3,66
0.8236049999999999,-7.383717999999999,-3.5960910000000004,3,66
-6.224924,-12.23437,-26.230873,3,66
1.273715,-6.502651,-3.5721489999999996,3,66
0.7230489999999999,-6.871359,-4.079719,3,66
2.226608,-7.575253999999999,-12.555194,3,66
3.284845,-11.96622,-3.892972,3,66
3.945645,-11.760319,-8.09719,3,66
2.801216,-9.32781,-5.133168,3,66
-1.35033,-3.380613,-0.057461,3,66
-0.253785,-6.373365,0.205901,3,66
-1.608903,-6.502651,-3.998317,3,66
1.685518,-10.146626,-1.115698,3,66
-0.474052,-4.13718,-1.249773,3,66
-0.761356,-9.203311,-2.1787229999999997,3,66
-1.278504,-4.1419690000000005,0.253785,3,66
-0.3304,-6.105214,-3.284845,3,66
1.455675,-7.479486,-3.864241,3,66
1.613692,-9.150639,-4.151545,3,66
1.216255,-9.792285,0.636858,3,66
-2.54743,-7.086836999999999,-2.585738,3,66
-1.206678,-9.433155,-2.202665,3,66
-3.1028849999999997,-4.644751,-2.456451,3,66
0.282516,-9.251195,-0.933739,3,66
-3.20823,-4.711789,0.885855,3,66
-2.8682540000000003,-5.4970870000000005,0.23942,3,67
2.767697,-4.932055,0.110133,3,67
2.470816,-7.718906,2.949657,3,67
4.941633,-6.833050999999999,-1.6998830000000005,3,67
1.1683709999999998,-9.816227,1.910573,3,67
8.073248,-5.856217,-1.359906,3,67
3.366248,-16.82645,1.1683709999999998,3,67
7.015011,-16.845604,-7.517792999999999,3,67
4.697424,-9.074024,-0.866701,3,67
-1.5466540000000002,-1.508347,0.3304,3,67
3.830723,-12.014104,-1.158794,3,67
2.418144,-9.002198,0.8236049999999999,3,67
3.529053,-7.436389999999999,1.905785,3,67
0.986411,-17.3005,-0.3830719999999999,3,67
-4.582502,-7.862558,9.792285,3,67
1.910573,-5.985504,-1.599327,3,67
4.458004,-6.914453999999999,-5.401319,3,67
2.475605,-8.705316999999999,-0.3734949999999999,3,67
-1.120486,-5.803545,2.044648,3,67
-2.39899,-8.451532,4.055778,3,67
5.64074,-8.566454,1.029507,3,67
-0.8283940000000001,-0.483629,10.582372,3,67
4.491523,-7.393294999999999,-1.58975,3,67
4.97994,-10.127473,-14.422671,3,67
1.106121,-7.1155669999999995,2.240973,3,67
1.355118,-8.667010000000001,1.479617,3,67
2.149993,-7.474697,5.93762,3,67
8.288725999999999,-10.783484,-3.165135,3,67
-0.991199,-19.416977,4.074930999999999,3,67
7.062895,-8.063671000000001,-0.972046,3,67
-2.346318,-3.270479,1.063026,3,68
-1.685518,-7.580042,-1.623269,3,68
-1.80044,-7.465121000000001,-3.0693669999999997,3,68
-0.124498,-12.559982000000002,6.7516490000000005,3,68
1.7525560000000002,-17.501614,-3.801992,3,68
2.331953,-9.744401,-7.407660000000001,3,68
3.222596,-8.920795,-3.08852,3,68
-3.4572269999999996,-2.715025,0.148441,3,68
2.264915,-9.931149,-4.659116,3,68
0.9912,-10.903194,-8.183380999999999,3,68
2.226608,-8.044516999999999,-2.341529,3,68
-1.647211,-11.851298,6.775591,3,68
8.39886,-13.771448,-2.566584,3,68
2.494758,-10.328587,-8.690952000000001,3,68
0.8236049999999999,-7.383717999999999,-3.5960910000000004,3,68
-6.224924,-12.23437,-26.230873,3,68
1.273715,-6.502651,-3.5721489999999996,3,68
0.7230489999999999,-6.871359,-4.079719,3,68
2.226608,-7.575253999999999,-12.555194,3,68
3.284845,-11.96622,-3.892972,3,68
3.945645,-11.760319,-8.09719,3,68
2.801216,-9.32781,-5.133168,3,68
-1.35033,-3.380613,-0.057461,3,68
-0.253785,-6.373365,0.205901,3,68
-1.608903,-6.502651,-3.998317,3,68
1.685518,-10.146626,-1.115698,3,68
-0.474052,-4.13718,-1.249773,3,68
-0.761356,-9.203311,-2.1787229999999997,3,68
-1.278504,-4.1419690000000005,0.253785,3,68
-0.3304,-6.105214,-3.284845,3,68
-1.278504,-4.1419690000000005,0.253785,3,69
-0.3304,-6.105214,-3.284845,3,69
1.455675,-7.479486,-3.864241,3,69
1.613692,-9.150639,-4.151545,3,69
1.216255,-9.792285,0.636858,3,69
-2.54743,-7.086836999999999,-2.585738,3,69
-1.206678,-9.433155,-2.202665,3,69
-3.1028849999999997,-4.644751,-2.456451,3,69
0.282516,-9.251195,-0.933739,3,69
-3.20823,-4.711789,0.885855,3,69
2.418144,-8.571242,-1.675941,3,69
-5.861006,-6.397307,-3.3758239999999997,3,69
2.959233,-6.081272,-3.136404,3,69
-7.805097,-8.365341,-2.130839,3,69
-0.842759,-6.119579,-1.61848,3,69
-1.814805,-7.259219,-1.043872,3,69
-0.617704,-6.301539,-1.067814,3,69
-1.685518,-8.403648,0.550666,3,69
2.48997,-15.964537,-0.8379709999999999,3,69
-0.483629,-15.078682,-6.253655,3,69
-2.633622,-17.927782,-5.453991,3,69
-2.312799,-15.825673000000002,9.706094,3,69
-0.6272810000000001,-14.772224,-5.3821650000000005,3,69
2.4660279999999997,-6.856992999999999,-4.477157,3,69
-4.6782699999999995,-6.397307,-3.993528,3,69
-1.838747,-9.935937,-3.1076740000000003,3,69
0.325611,-8.619126,-3.4428620000000003,3,69
-2.604891,-4.180276,-2.652775,3,69
-2.700659,-13.340492,-3.912125,3,69
1.642422,-8.130708,-8.681376,3,69
0.766145,-4.788403,-0.981623,3,70
0.02873,-6.545747,-0.6464340000000001,3,70
6.952762,-11.247959,0.344765,3,70
6.895301,-13.982138,-2.504335,3,70
-1.417367,-19.349937,0.177171,3,70
0.320823,-3.715801,-9.653421,3,70
-4.649539,-15.05474,1.192313,3,70
4.242526,-16.539145,-10.836157,3,70
6.789956,-6.947972999999999,-3.007117,3,70
0.933739,-4.606444000000001,-0.512359,3,70
3.2896330000000003,-7.469909,-0.0430959999999999,3,70
-1.6519990000000002,-17.535133,-2.2505490000000004,3,70
-6.320692,-6.196194,1.896208,3,70
-1.331176,-17.956512,-0.632069,3,70
12.133814,-18.703505,-7.508216,3,70
6.588842999999999,-10.568007,-2.60968,3,70
7.996633999999999,-5.918466,-6.646304,3,70
0.2585739999999999,-8.657434,-2.351106,3,70
-1.94888,-5.003881,2.006341,3,70
1.364695,-8.054094000000001,-3.222595,3,70
2.0302830000000003,-13.613431,-2.0302830000000003,3,70
12.411542,-13.881581,-4.386177,3,70
4.879383,-13.110648,-3.5960910000000004,3,70
1.201889,-17.908628,0.004788,3,70
-6.847417,-16.74026,4.13718,3,70
-4.003105000000001,1.249773,10.716447,3,70
3.0502130000000003,-11.482592,-4.683058,3,70
8.532935,-14.571112,-11.492168,3,70
2.1883,-8.987833,-1.273715,3,70
1.101333,-3.648763,0.416591,3,70
-6.320692,-6.196194,1.896208,3,71
-1.331176,-17.956512,-0.632069,3,71
12.133814,-18.703505,-7.508216,3,71
6.588842999999999,-10.568007,-2.60968,3,71
7.996633999999999,-5.918466,-6.646304,3,71
0.2585739999999999,-8.657434,-2.351106,3,71
-1.94888,-5.003881,2.006341,3,71
1.364695,-8.054094000000001,-3.222595,3,71
2.0302830000000003,-13.613431,-2.0302830000000003,3,71
12.411542,-13.881581,-4.386177,3,71
4.879383,-13.110648,-3.5960910000000004,3,71
1.201889,-17.908628,0.004788,3,71
-6.847417,-16.74026,4.13718,3,71
-4.003105000000001,1.249773,10.716447,3,71
3.0502130000000003,-11.482592,-4.683058,3,71
8.532935,-14.571112,-11.492168,3,71
2.1883,-8.987833,-1.273715,3,71
1.101333,-3.648763,0.416591,3,71
4.276045,-9.346964,0.502782,3,71
-3.77805,-3.605668,2.475605,3,71
2.236184,-7.388506,-1.173159,3,71
-4.094085,-1.441309,2.13084,3,71
2.011129,-12.564771,0.8236049999999999,3,71
-0.071826,-13.733141,2.652776,3,71
1.996764,-6.062118,-6.210559,3,71
3.438074,-7.139508999999999,0.292093,3,71
12.650962,1.61848,10.716447,3,71
7.402872,-7.771578999999999,-4.127603,3,71
2.9209259999999997,-8.571242,-7.881711999999999,3,71
2.767697,-8.935161,-2.149993,3,71
-6.847417,-16.74026,4.13718,3,72
-4.003105000000001,1.249773,10.716447,3,72
3.0502130000000003,-11.482592,-4.683058,3,72
8.532935,-14.571112,-11.492168,3,72
2.1883,-8.987833,-1.273715,3,72
1.101333,-3.648763,0.416591,3,72
4.276045,-9.346964,0.502782,3,72
-3.77805,-3.605668,2.475605,3,72
2.236184,-7.388506,-1.173159,3,72
-4.094085,-1.441309,2.13084,3,72
2.011129,-12.564771,0.8236049999999999,3,72
-0.071826,-13.733141,2.652776,3,72
1.996764,-6.062118,-6.210559,3,72
3.438074,-7.139508999999999,0.292093,3,72
12.650962,1.61848,10.716447,3,72
7.402872,-7.771578999999999,-4.127603,3,72
2.9209259999999997,-8.571242,-7.881711999999999,3,72
2.767697,-8.935161,-2.149993,3,72
-1.101333,-13.939042,-0.948104,3,72
1.532289,-6.2153480000000005,-5.928043,3,72
2.652776,-5.865794,-3.227384,3,72
-0.737414,-3.86903,-1.4987700000000002,3,72
3.677494,-6.8761470000000005,-2.782062,3,72
0.612916,-3.744531,-0.507571,3,72
0.052672,-8.403648,-4.185065,3,72
-1.843535,-3.892972,-1.929727,3,72
0.665588,-6.809108999999999,-1.939303,3,72
-2.011129,-4.232949,-0.919373,3,72
2.432509,-10.304645,-1.671153,3,72
0.588974,-5.999869,-2.327164,3,72
4.879383,-13.110648,-3.5960910000000004,3,73
1.201889,-17.908628,0.004788,3,73
-6.847417,-16.74026,4.13718,3,73
-4.003105000000001,1.249773,10.716447,3,73
3.0502130000000003,-11.482592,-4.683058,3,73
8.532935,-14.571112,-11.492168,3,73
2.1883,-8.987833,-1.273715,3,73
1.101333,-3.648763,0.416591,3,73
4.276045,-9.346964,0.502782,3,73
-3.77805,-3.605668,2.475605,3,73
2.236184,-7.388506,-1.173159,3,73
-4.094085,-1.441309,2.13084,3,73
2.011129,-12.564771,0.8236049999999999,3,73
-0.071826,-13.733141,2.652776,3,73
1.996764,-6.062118,-6.210559,3,73
3.438074,-7.139508999999999,0.292093,3,73
12.650962,1.61848,10.716447,3,73
7.402872,-7.771578999999999,-4.127603,3,73
2.9209259999999997,-8.571242,-7.881711999999999,3,73
2.767697,-8.935161,-2.149993,3,73
-1.101333,-13.939042,-0.948104,3,73
1.532289,-6.2153480000000005,-5.928043,3,73
2.652776,-5.865794,-3.227384,3,73
-0.737414,-3.86903,-1.4987700000000002,3,73
3.677494,-6.8761470000000005,-2.782062,3,73
0.612916,-3.744531,-0.507571,3,73
0.052672,-8.403648,-4.185065,3,73
-1.843535,-3.892972,-1.929727,3,73
0.665588,-6.809108999999999,-1.939303,3,73
-2.011129,-4.232949,-0.919373,3,73
3.2896330000000003,-7.469909,-0.0430959999999999,3,74
-1.6519990000000002,-17.535133,-2.2505490000000004,3,74
-6.320692,-6.196194,1.896208,3,74
-1.331176,-17.956512,-0.632069,3,74
12.133814,-18.703505,-7.508216,3,74
6.588842999999999,-10.568007,-2.60968,3,74
7.996633999999999,-5.918466,-6.646304,3,74
0.2585739999999999,-8.657434,-2.351106,3,74
-1.94888,-5.003881,2.006341,3,74
1.364695,-8.054094000000001,-3.222595,3,74
2.0302830000000003,-13.613431,-2.0302830000000003,3,74
12.411542,-13.881581,-4.386177,3,74
4.879383,-13.110648,-3.5960910000000004,3,74
1.201889,-17.908628,0.004788,3,74
-6.847417,-16.74026,4.13718,3,74
-4.003105000000001,1.249773,10.716447,3,74
3.0502130000000003,-11.482592,-4.683058,3,74
8.532935,-14.571112,-11.492168,3,74
2.1883,-8.987833,-1.273715,3,74
1.101333,-3.648763,0.416591,3,74
4.276045,-9.346964,0.502782,3,74
-3.77805,-3.605668,2.475605,3,74
2.236184,-7.388506,-1.173159,3,74
-4.094085,-1.441309,2.13084,3,74
2.011129,-12.564771,0.8236049999999999,3,74
-0.071826,-13.733141,2.652776,3,74
1.996764,-6.062118,-6.210559,3,74
3.438074,-7.139508999999999,0.292093,3,74
12.650962,1.61848,10.716447,3,74
7.402872,-7.771578999999999,-4.127603,3,74
-0.991199,-19.416977,4.074930999999999,3,75
7.062895,-8.063671000000001,-0.972046,3,75
0.766145,-4.788403,-0.981623,3,75
0.02873,-6.545747,-0.6464340000000001,3,75
6.952762,-11.247959,0.344765,3,75
6.895301,-13.982138,-2.504335,3,75
-1.417367,-19.349937,0.177171,3,75
0.320823,-3.715801,-9.653421,3,75
-4.649539,-15.05474,1.192313,3,75
4.242526,-16.539145,-10.836157,3,75
6.789956,-6.947972999999999,-3.007117,3,75
0.933739,-4.606444000000001,-0.512359,3,75
3.2896330000000003,-7.469909,-0.0430959999999999,3,75
-1.6519990000000002,-17.535133,-2.2505490000000004,3,75
-6.320692,-6.196194,1.896208,3,75
-1.331176,-17.956512,-0.632069,3,75
12.133814,-18.703505,-7.508216,3,75
6.588842999999999,-10.568007,-2.60968,3,75
7.996633999999999,-5.918466,-6.646304,3,75
0.2585739999999999,-8.657434,-2.351106,3,75
-1.94888,-5.003881,2.006341,3,75
1.364695,-8.054094000000001,-3.222595,3,75
2.0302830000000003,-13.613431,-2.0302830000000003,3,75
12.411542,-13.881581,-4.386177,3,75
4.879383,-13.110648,-3.5960910000000004,3,75
1.201889,-17.908628,0.004788,3,75
-6.847417,-16.74026,4.13718,3,75
-4.003105000000001,1.249773,10.716447,3,75
3.0502130000000003,-11.482592,-4.683058,3,75
8.532935,-14.571112,-11.492168,3,75
1.455675,-7.479486,-3.864241,3,76
1.613692,-9.150639,-4.151545,3,76
1.216255,-9.792285,0.636858,3,76
-2.54743,-7.086836999999999,-2.585738,3,76
-1.206678,-9.433155,-2.202665,3,76
-3.1028849999999997,-4.644751,-2.456451,3,76
0.282516,-9.251195,-0.933739,3,76
-3.20823,-4.711789,0.885855,3,76
2.418144,-8.571242,-1.675941,3,76
-5.861006,-6.397307,-3.3758239999999997,3,76
2.959233,-6.081272,-3.136404,3,76
-7.805097,-8.365341,-2.130839,3,76
-0.842759,-6.119579,-1.61848,3,76
-1.814805,-7.259219,-1.043872,3,76
-0.617704,-6.301539,-1.067814,3,76
-1.685518,-8.403648,0.550666,3,76
2.48997,-15.964537,-0.8379709999999999,3,76
-0.483629,-15.078682,-6.253655,3,76
-2.633622,-17.927782,-5.453991,3,76
-2.312799,-15.825673000000002,9.706094,3,76
-0.6272810000000001,-14.772224,-5.3821650000000005,3,76
2.4660279999999997,-6.856992999999999,-4.477157,3,76
-4.6782699999999995,-6.397307,-3.993528,3,76
-1.838747,-9.935937,-3.1076740000000003,3,76
0.325611,-8.619126,-3.4428620000000003,3,76
-2.604891,-4.180276,-2.652775,3,76
-2.700659,-13.340492,-3.912125,3,76
1.642422,-8.130708,-8.681376,3,76
2.930503,-8.51857,-2.236184,3,76
-0.943315,-0.943315,0.842759,3,76
-1.80044,-7.465121000000001,-3.0693669999999997,3,77
-0.124498,-12.559982000000002,6.7516490000000005,3,77
1.7525560000000002,-17.501614,-3.801992,3,77
2.331953,-9.744401,-7.407660000000001,3,77
3.222596,-8.920795,-3.08852,3,77
-3.4572269999999996,-2.715025,0.148441,3,77
2.264915,-9.931149,-4.659116,3,77
0.9912,-10.903194,-8.183380999999999,3,77
2.226608,-8.044516999999999,-2.341529,3,77
-1.647211,-11.851298,6.775591,3,77
8.39886,-13.771448,-2.566584,3,77
2.494758,-10.328587,-8.690952000000001,3,77
0.8236049999999999,-7.383717999999999,-3.5960910000000004,3,77
-6.224924,-12.23437,-26.230873,3,77
1.273715,-6.502651,-3.5721489999999996,3,77
0.7230489999999999,-6.871359,-4.079719,3,77
2.226608,-7.575253999999999,-12.555194,3,77
3.284845,-11.96622,-3.892972,3,77
3.945645,-11.760319,-8.09719,3,77
2.801216,-9.32781,-5.133168,3,77
-1.35033,-3.380613,-0.057461,3,77
-0.253785,-6.373365,0.205901,3,77
-1.608903,-6.502651,-3.998317,3,77
1.685518,-10.146626,-1.115698,3,77
-0.474052,-4.13718,-1.249773,3,77
-0.761356,-9.203311,-2.1787229999999997,3,77
-1.278504,-4.1419690000000005,0.253785,3,77
-0.3304,-6.105214,-3.284845,3,77
1.455675,-7.479486,-3.864241,3,77
1.613692,-9.150639,-4.151545,3,77
2.470816,-7.718906,2.949657,3,78
4.941633,-6.833050999999999,-1.6998830000000005,3,78
1.1683709999999998,-9.816227,1.910573,3,78
8.073248,-5.856217,-1.359906,3,78
3.366248,-16.82645,1.1683709999999998,3,78
7.015011,-16.845604,-7.517792999999999,3,78
4.697424,-9.074024,-0.866701,3,78
-1.5466540000000002,-1.508347,0.3304,3,78
3.830723,-12.014104,-1.158794,3,78
2.418144,-9.002198,0.8236049999999999,3,78
3.529053,-7.436389999999999,1.905785,3,78
0.986411,-17.3005,-0.3830719999999999,3,78
-4.582502,-7.862558,9.792285,3,78
1.910573,-5.985504,-1.599327,3,78
4.458004,-6.914453999999999,-5.401319,3,78
2.475605,-8.705316999999999,-0.3734949999999999,3,78
-1.120486,-5.803545,2.044648,3,78
-2.39899,-8.451532,4.055778,3,78
5.64074,-8.566454,1.029507,3,78
-0.8283940000000001,-0.483629,10.582372,3,78
4.491523,-7.393294999999999,-1.58975,3,78
4.97994,-10.127473,-14.422671,3,78
1.106121,-7.1155669999999995,2.240973,3,78
1.355118,-8.667010000000001,1.479617,3,78
2.149993,-7.474697,5.93762,3,78
8.288725999999999,-10.783484,-3.165135,3,78
-0.991199,-19.416977,4.074930999999999,3,78
7.062895,-8.063671000000001,-0.972046,3,78
0.766145,-4.788403,-0.981623,3,78
0.02873,-6.545747,-0.6464340000000001,3,78
3.366248,-16.82645,1.1683709999999998,3,79
7.015011,-16.845604,-7.517792999999999,3,79
4.697424,-9.074024,-0.866701,3,79
-1.5466540000000002,-1.508347,0.3304,3,79
3.830723,-12.014104,-1.158794,3,79
2.418144,-9.002198,0.8236049999999999,3,79
3.529053,-7.436389999999999,1.905785,3,79
0.986411,-17.3005,-0.3830719999999999,3,79
-4.582502,-7.862558,9.792285,3,79
1.910573,-5.985504,-1.599327,3,79
4.458004,-6.914453999999999,-5.401319,3,79
2.475605,-8.705316999999999,-0.3734949999999999,3,79
-1.120486,-5.803545,2.044648,3,79
-2.39899,-8.451532,4.055778,3,79
5.64074,-8.566454,1.029507,3,79
-0.8283940000000001,-0.483629,10.582372,3,79
4.491523,-7.393294999999999,-1.58975,3,79
4.97994,-10.127473,-14.422671,3,79
1.106121,-7.1155669999999995,2.240973,3,79
1.355118,-8.667010000000001,1.479617,3,79
2.149993,-7.474697,5.93762,3,79
8.288725999999999,-10.783484,-3.165135,3,79
-0.991199,-19.416977,4.074930999999999,3,79
7.062895,-8.063671000000001,-0.972046,3,79
0.766145,-4.788403,-0.981623,3,79
0.02873,-6.545747,-0.6464340000000001,3,79
6.952762,-11.247959,0.344765,3,79
6.895301,-13.982138,-2.504335,3,79
-1.417367,-19.349937,0.177171,3,79
0.320823,-3.715801,-9.653421,3,79
0.325611,-8.619126,-3.4428620000000003,3,80
-2.604891,-4.180276,-2.652775,3,80
-2.700659,-13.340492,-3.912125,3,80
1.642422,-8.130708,-8.681376,3,80
2.930503,-8.51857,-2.236184,3,80
-0.943315,-0.943315,0.842759,3,80
-0.057461,-7.536947,-3.112462,3,80
-2.240973,-4.7357309999999995,-0.8044520000000001,3,80
0.483629,-8.561666,-3.653551999999999,3,80
8.2169,-11.386824,-0.1005559999999999,3,80
-0.124498,-9.442732,-0.842759,3,80
2.657564,-10.381259,0.665588,3,80
1.383849,-16.093823999999998,-1.479617,3,80
1.771709,-13.642160999999998,-8.920795,3,80
1.024718,-5.295974,-1.484405,3,80
2.628834,-4.697424,-3.892972,3,80
2.422932,-4.544194,1.604115,3,80
-0.229843,-7.383717999999999,-6.809108999999999,3,80
2.949657,-13.354857,-3.998317,3,80
1.134852,-5.291186,-4.3766,3,80
-0.536301,-6.2153480000000005,-6.378153,3,80
2.48997,-7.809886,-3.672705,3,80
2.6862939999999997,-16.46732,-2.336741,3,80
2.5953150000000003,-15.524004,-2.437297,3,80
-6.186617,-13.532028,-3.155558,3,80
-0.536301,-11.386824,-12.243947,3,80
-5.228936,-7.862558,-3.323152,3,80
0.316035,-8.226476,-2.5905259999999997,3,80
1.01993,-9.423578,-5.741296,3,80
-0.6272810000000001,-8.944737,-6.315904,3,80
-0.474052,-4.13718,-1.249773,3,81
-0.761356,-9.203311,-2.1787229999999997,3,81
-1.278504,-4.1419690000000005,0.253785,3,81
-0.3304,-6.105214,-3.284845,3,81
1.455675,-7.479486,-3.864241,3,81
1.613692,-9.150639,-4.151545,3,81
1.216255,-9.792285,0.636858,3,81
-2.54743,-7.086836999999999,-2.585738,3,81
-1.206678,-9.433155,-2.202665,3,81
-3.1028849999999997,-4.644751,-2.456451,3,81
0.282516,-9.251195,-0.933739,3,81
-3.20823,-4.711789,0.885855,3,81
2.418144,-8.571242,-1.675941,3,81
-5.861006,-6.397307,-3.3758239999999997,3,81
2.959233,-6.081272,-3.136404,3,81
-7.805097,-8.365341,-2.130839,3,81
-0.842759,-6.119579,-1.61848,3,81
-1.814805,-7.259219,-1.043872,3,81
-0.617704,-6.301539,-1.067814,3,81
-1.685518,-8.403648,0.550666,3,81
2.48997,-15.964537,-0.8379709999999999,3,81
-0.483629,-15.078682,-6.253655,3,81
-2.633622,-17.927782,-5.453991,3,81
-2.312799,-15.825673000000002,9.706094,3,81
-0.6272810000000001,-14.772224,-5.3821650000000005,3,81
2.4660279999999997,-6.856992999999999,-4.477157,3,81
-4.6782699999999995,-6.397307,-3.993528,3,81
-1.838747,-9.935937,-3.1076740000000003,3,81
0.325611,-8.619126,-3.4428620000000003,3,81
-2.604891,-4.180276,-2.652775,3,81
5.152323,-11.702858,-2.27928,3,82
1.637634,-22.720974,-10.491392,3,82
-2.346318,-3.270479,1.063026,3,82
-1.685518,-7.580042,-1.623269,3,82
-1.80044,-7.465121000000001,-3.0693669999999997,3,82
-0.124498,-12.559982000000002,6.7516490000000005,3,82
1.7525560000000002,-17.501614,-3.801992,3,82
2.331953,-9.744401,-7.407660000000001,3,82
3.222596,-8.920795,-3.08852,3,82
-3.4572269999999996,-2.715025,0.148441,3,82
2.264915,-9.931149,-4.659116,3,82
0.9912,-10.903194,-8.183380999999999,3,82
2.226608,-8.044516999999999,-2.341529,3,82
-1.647211,-11.851298,6.775591,3,82
8.39886,-13.771448,-2.566584,3,82
2.494758,-10.328587,-8.690952000000001,3,82
0.8236049999999999,-7.383717999999999,-3.5960910000000004,3,82
-6.224924,-12.23437,-26.230873,3,82
1.273715,-6.502651,-3.5721489999999996,3,82
0.7230489999999999,-6.871359,-4.079719,3,82
2.226608,-7.575253999999999,-12.555194,3,82
3.284845,-11.96622,-3.892972,3,82
3.945645,-11.760319,-8.09719,3,82
2.801216,-9.32781,-5.133168,3,82
-1.35033,-3.380613,-0.057461,3,82
-0.253785,-6.373365,0.205901,3,82
-1.608903,-6.502651,-3.998317,3,82
1.685518,-10.146626,-1.115698,3,82
-0.474052,-4.13718,-1.249773,3,82
-0.761356,-9.203311,-2.1787229999999997,3,82
3.0502130000000003,-11.482592,-4.683058,3,83
8.532935,-14.571112,-11.492168,3,83
2.1883,-8.987833,-1.273715,3,83
1.101333,-3.648763,0.416591,3,83
4.276045,-9.346964,0.502782,3,83
-3.77805,-3.605668,2.475605,3,83
2.236184,-7.388506,-1.173159,3,83
-4.094085,-1.441309,2.13084,3,83
2.011129,-12.564771,0.8236049999999999,3,83
-0.071826,-13.733141,2.652776,3,83
1.996764,-6.062118,-6.210559,3,83
3.438074,-7.139508999999999,0.292093,3,83
12.650962,1.61848,10.716447,3,83
7.402872,-7.771578999999999,-4.127603,3,83
2.9209259999999997,-8.571242,-7.881711999999999,3,83
2.767697,-8.935161,-2.149993,3,83
-1.101333,-13.939042,-0.948104,3,83
1.532289,-6.2153480000000005,-5.928043,3,83
2.652776,-5.865794,-3.227384,3,83
-0.737414,-3.86903,-1.4987700000000002,3,83
3.677494,-6.8761470000000005,-2.782062,3,83
0.612916,-3.744531,-0.507571,3,83
0.052672,-8.403648,-4.185065,3,83
-1.843535,-3.892972,-1.929727,3,83
0.665588,-6.809108999999999,-1.939303,3,83
-2.011129,-4.232949,-0.919373,3,83
2.432509,-10.304645,-1.671153,3,83
0.588974,-5.999869,-2.327164,3,83
1.431733,-8.27436,-1.73819,3,83
-1.7860740000000002,-7.996633,-3.3279400000000003,3,83
12.133814,-18.703505,-7.508216,3,84
6.588842999999999,-10.568007,-2.60968,3,84
7.996633999999999,-5.918466,-6.646304,3,84
0.2585739999999999,-8.657434,-2.351106,3,84
-1.94888,-5.003881,2.006341,3,84
1.364695,-8.054094000000001,-3.222595,3,84
2.0302830000000003,-13.613431,-2.0302830000000003,3,84
12.411542,-13.881581,-4.386177,3,84
4.879383,-13.110648,-3.5960910000000004,3,84
1.201889,-17.908628,0.004788,3,84
-6.847417,-16.74026,4.13718,3,84
-4.003105000000001,1.249773,10.716447,3,84
3.0502130000000003,-11.482592,-4.683058,3,84
8.532935,-14.571112,-11.492168,3,84
2.1883,-8.987833,-1.273715,3,84
1.101333,-3.648763,0.416591,3,84
4.276045,-9.346964,0.502782,3,84
-3.77805,-3.605668,2.475605,3,84
2.236184,-7.388506,-1.173159,3,84
-4.094085,-1.441309,2.13084,3,84
2.011129,-12.564771,0.8236049999999999,3,84
-0.071826,-13.733141,2.652776,3,84
1.996764,-6.062118,-6.210559,3,84
3.438074,-7.139508999999999,0.292093,3,84
12.650962,1.61848,10.716447,3,84
7.402872,-7.771578999999999,-4.127603,3,84
2.9209259999999997,-8.571242,-7.881711999999999,3,84
2.767697,-8.935161,-2.149993,3,84
-1.101333,-13.939042,-0.948104,3,84
1.532289,-6.2153480000000005,-5.928043,3,84
7.996633999999999,-5.918466,-6.646304,3,85
0.2585739999999999,-8.657434,-2.351106,3,85
-1.94888,-5.003881,2.006341,3,85
1.364695,-8.054094000000001,-3.222595,3,85
2.0302830000000003,-13.613431,-2.0302830000000003,3,85
12.411542,-13.881581,-4.386177,3,85
4.879383,-13.110648,-3.5960910000000004,3,85
1.201889,-17.908628,0.004788,3,85
-6.847417,-16.74026,4.13718,3,85
-4.003105000000001,1.249773,10.716447,3,85
3.0502130000000003,-11.482592,-4.683058,3,85
8.532935,-14.571112,-11.492168,3,85
2.1883,-8.987833,-1.273715,3,85
1.101333,-3.648763,0.416591,3,85
4.276045,-9.346964,0.502782,3,85
-3.77805,-3.605668,2.475605,3,85
2.236184,-7.388506,-1.173159,3,85
-4.094085,-1.441309,2.13084,3,85
2.011129,-12.564771,0.8236049999999999,3,85
-0.071826,-13.733141,2.652776,3,85
1.996764,-6.062118,-6.210559,3,85
3.438074,-7.139508999999999,0.292093,3,85
12.650962,1.61848,10.716447,3,85
7.402872,-7.771578999999999,-4.127603,3,85
2.9209259999999997,-8.571242,-7.881711999999999,3,85
2.767697,-8.935161,-2.149993,3,85
-1.101333,-13.939042,-0.948104,3,85
1.532289,-6.2153480000000005,-5.928043,3,85
2.652776,-5.865794,-3.227384,3,85
-0.737414,-3.86903,-1.4987700000000002,3,85
2.1883,-8.987833,-1.273715,3,86
1.101333,-3.648763,0.416591,3,86
4.276045,-9.346964,0.502782,3,86
-3.77805,-3.605668,2.475605,3,86
2.236184,-7.388506,-1.173159,3,86
-4.094085,-1.441309,2.13084,3,86
2.011129,-12.564771,0.8236049999999999,3,86
-0.071826,-13.733141,2.652776,3,86
1.996764,-6.062118,-6.210559,3,86
3.438074,-7.139508999999999,0.292093,3,86
12.650962,1.61848,10.716447,3,86
7.402872,-7.771578999999999,-4.127603,3,86
2.9209259999999997,-8.571242,-7.881711999999999,3,86
2.767697,-8.935161,-2.149993,3,86
-1.101333,-13.939042,-0.948104,3,86
1.532289,-6.2153480000000005,-5.928043,3,86
2.652776,-5.865794,-3.227384,3,86
-0.737414,-3.86903,-1.4987700000000002,3,86
3.677494,-6.8761470000000005,-2.782062,3,86
0.612916,-3.744531,-0.507571,3,86
0.052672,-8.403648,-4.185065,3,86
-1.843535,-3.892972,-1.929727,3,86
0.665588,-6.809108999999999,-1.939303,3,86
-2.011129,-4.232949,-0.919373,3,86
2.432509,-10.304645,-1.671153,3,86
0.588974,-5.999869,-2.327164,3,86
1.431733,-8.27436,-1.73819,3,86
-1.7860740000000002,-7.996633,-3.3279400000000003,3,86
0.885855,-11.468226,5.544971,3,86
-0.770933,-21.74414,-3.605668,3,86
-2.269703,-2.782062,2.39899,3,87
1.479617,-9.251195,-0.857124,3,87
5.152323,-11.702858,-2.27928,3,87
1.637634,-22.720974,-10.491392,3,87
-2.346318,-3.270479,1.063026,3,87
-1.685518,-7.580042,-1.623269,3,87
-1.80044,-7.465121000000001,-3.0693669999999997,3,87
-0.124498,-12.559982000000002,6.7516490000000005,3,87
1.7525560000000002,-17.501614,-3.801992,3,87
2.331953,-9.744401,-7.407660000000001,3,87
3.222596,-8.920795,-3.08852,3,87
-3.4572269999999996,-2.715025,0.148441,3,87
2.264915,-9.931149,-4.659116,3,87
0.9912,-10.903194,-8.183380999999999,3,87
2.226608,-8.044516999999999,-2.341529,3,87
-1.647211,-11.851298,6.775591,3,87
8.39886,-13.771448,-2.566584,3,87
2.494758,-10.328587,-8.690952000000001,3,87
0.8236049999999999,-7.383717999999999,-3.5960910000000004,3,87
-6.224924,-12.23437,-26.230873,3,87
1.273715,-6.502651,-3.5721489999999996,3,87
0.7230489999999999,-6.871359,-4.079719,3,87
2.226608,-7.575253999999999,-12.555194,3,87
3.284845,-11.96622,-3.892972,3,87
3.945645,-11.760319,-8.09719,3,87
2.801216,-9.32781,-5.133168,3,87
-1.35033,-3.380613,-0.057461,3,87
-0.253785,-6.373365,0.205901,3,87
-1.608903,-6.502651,-3.998317,3,87
1.685518,-10.146626,-1.115698,3,87
-1.608903,-6.502651,-3.998317,3,88
1.685518,-10.146626,-1.115698,3,88
-0.474052,-4.13718,-1.249773,3,88
-0.761356,-9.203311,-2.1787229999999997,3,88
-1.278504,-4.1419690000000005,0.253785,3,88
-0.3304,-6.105214,-3.284845,3,88
1.455675,-7.479486,-3.864241,3,88
1.613692,-9.150639,-4.151545,3,88
1.216255,-9.792285,0.636858,3,88
-2.54743,-7.086836999999999,-2.585738,3,88
-1.206678,-9.433155,-2.202665,3,88
-3.1028849999999997,-4.644751,-2.456451,3,88
0.282516,-9.251195,-0.933739,3,88
-3.20823,-4.711789,0.885855,3,88
2.418144,-8.571242,-1.675941,3,88
-5.861006,-6.397307,-3.3758239999999997,3,88
2.959233,-6.081272,-3.136404,3,88
-7.805097,-8.365341,-2.130839,3,88
-0.842759,-6.119579,-1.61848,3,88
-1.814805,-7.259219,-1.043872,3,88
-0.617704,-6.301539,-1.067814,3,88
-1.685518,-8.403648,0.550666,3,88
2.48997,-15.964537,-0.8379709999999999,3,88
-0.483629,-15.078682,-6.253655,3,88
-2.633622,-17.927782,-5.453991,3,88
-2.312799,-15.825673000000002,9.706094,3,88
-0.6272810000000001,-14.772224,-5.3821650000000005,3,88
2.4660279999999997,-6.856992999999999,-4.477157,3,88
-4.6782699999999995,-6.397307,-3.993528,3,88
-1.838747,-9.935937,-3.1076740000000003,3,88
-4.6782699999999995,-6.397307,-3.993528,3,89
-1.838747,-9.935937,-3.1076740000000003,3,89
0.325611,-8.619126,-3.4428620000000003,3,89
-2.604891,-4.180276,-2.652775,3,89
-2.700659,-13.340492,-3.912125,3,89
1.642422,-8.130708,-8.681376,3,89
2.930503,-8.51857,-2.236184,3,89
-0.943315,-0.943315,0.842759,3,89
-0.057461,-7.536947,-3.112462,3,89
-2.240973,-4.7357309999999995,-0.8044520000000001,3,89
0.483629,-8.561666,-3.653551999999999,3,89
8.2169,-11.386824,-0.1005559999999999,3,89
-0.124498,-9.442732,-0.842759,3,89
2.657564,-10.381259,0.665588,3,89
1.383849,-16.093823999999998,-1.479617,3,89
1.771709,-13.642160999999998,-8.920795,3,89
1.024718,-5.295974,-1.484405,3,89
2.628834,-4.697424,-3.892972,3,89
2.422932,-4.544194,1.604115,3,89
-0.229843,-7.383717999999999,-6.809108999999999,3,89
2.949657,-13.354857,-3.998317,3,89
1.134852,-5.291186,-4.3766,3,89
-0.536301,-6.2153480000000005,-6.378153,3,89
2.48997,-7.809886,-3.672705,3,89
2.6862939999999997,-16.46732,-2.336741,3,89
2.5953150000000003,-15.524004,-2.437297,3,89
-6.186617,-13.532028,-3.155558,3,89
-0.536301,-11.386824,-12.243947,3,89
-5.228936,-7.862558,-3.323152,3,89
0.316035,-8.226476,-2.5905259999999997,3,89
1.1683709999999998,-9.816227,1.910573,3,90
8.073248,-5.856217,-1.359906,3,90
3.366248,-16.82645,1.1683709999999998,3,90
7.015011,-16.845604,-7.517792999999999,3,90
4.697424,-9.074024,-0.866701,3,90
-1.5466540000000002,-1.508347,0.3304,3,90
3.830723,-12.014104,-1.158794,3,90
2.418144,-9.002198,0.8236049999999999,3,90
3.529053,-7.436389999999999,1.905785,3,90
0.986411,-17.3005,-0.3830719999999999,3,90
-4.582502,-7.862558,9.792285,3,90
1.910573,-5.985504,-1.599327,3,90
4.458004,-6.914453999999999,-5.401319,3,90
2.475605,-8.705316999999999,-0.3734949999999999,3,90
-1.120486,-5.803545,2.044648,3,90
-2.39899,-8.451532,4.055778,3,90
5.64074,-8.566454,1.029507,3,90
-0.8283940000000001,-0.483629,10.582372,3,90
4.491523,-7.393294999999999,-1.58975,3,90
4.97994,-10.127473,-14.422671,3,90
1.106121,-7.1155669999999995,2.240973,3,90
1.355118,-8.667010000000001,1.479617,3,90
2.149993,-7.474697,5.93762,3,90
8.288725999999999,-10.783484,-3.165135,3,90
-0.991199,-19.416977,4.074930999999999,3,90
7.062895,-8.063671000000001,-0.972046,3,90
0.766145,-4.788403,-0.981623,3,90
0.02873,-6.545747,-0.6464340000000001,3,90
6.952762,-11.247959,0.344765,3,90
6.895301,-13.982138,-2.504335,3,90
2.930503,-8.51857,-2.236184,3,91
-0.943315,-0.943315,0.842759,3,91
-0.057461,-7.536947,-3.112462,3,91
-2.240973,-4.7357309999999995,-0.8044520000000001,3,91
0.483629,-8.561666,-3.653551999999999,3,91
8.2169,-11.386824,-0.1005559999999999,3,91
-0.124498,-9.442732,-0.842759,3,91
2.657564,-10.381259,0.665588,3,91
1.383849,-16.093823999999998,-1.479617,3,91
1.771709,-13.642160999999998,-8.920795,3,91
1.024718,-5.295974,-1.484405,3,91
2.628834,-4.697424,-3.892972,3,91
2.422932,-4.544194,1.604115,3,91
-0.229843,-7.383717999999999,-6.809108999999999,3,91
2.949657,-13.354857,-3.998317,3,91
1.134852,-5.291186,-4.3766,3,91
-0.536301,-6.2153480000000005,-6.378153,3,91
2.48997,-7.809886,-3.672705,3,91
2.6862939999999997,-16.46732,-2.336741,3,91
2.5953150000000003,-15.524004,-2.437297,3,91
-6.186617,-13.532028,-3.155558,3,91
-0.536301,-11.386824,-12.243947,3,91
-5.228936,-7.862558,-3.323152,3,91
0.316035,-8.226476,-2.5905259999999997,3,91
1.01993,-9.423578,-5.741296,3,91
-0.6272810000000001,-8.944737,-6.315904,3,91
-1.082179,-5.779603,-0.483629,3,91
1.4604629999999998,-11.267113,-1.340753,3,91
-3.835511,-12.253524,8.130709,3,91
1.776498,-7.091625,0.636858,3,91
2.48997,-15.964537,-0.8379709999999999,3,92
-0.483629,-15.078682,-6.253655,3,92
-2.633622,-17.927782,-5.453991,3,92
-2.312799,-15.825673000000002,9.706094,3,92
-0.6272810000000001,-14.772224,-5.3821650000000005,3,92
2.4660279999999997,-6.856992999999999,-4.477157,3,92
-4.6782699999999995,-6.397307,-3.993528,3,92
-1.838747,-9.935937,-3.1076740000000003,3,92
0.325611,-8.619126,-3.4428620000000003,3,92
-2.604891,-4.180276,-2.652775,3,92
-2.700659,-13.340492,-3.912125,3,92
1.642422,-8.130708,-8.681376,3,92
2.930503,-8.51857,-2.236184,3,92
-0.943315,-0.943315,0.842759,3,92
-0.057461,-7.536947,-3.112462,3,92
-2.240973,-4.7357309999999995,-0.8044520000000001,3,92
0.483629,-8.561666,-3.653551999999999,3,92
8.2169,-11.386824,-0.1005559999999999,3,92
-0.124498,-9.442732,-0.842759,3,92
2.657564,-10.381259,0.665588,3,92
1.383849,-16.093823999999998,-1.479617,3,92
1.771709,-13.642160999999998,-8.920795,3,92
1.024718,-5.295974,-1.484405,3,92
2.628834,-4.697424,-3.892972,3,92
2.422932,-4.544194,1.604115,3,92
-0.229843,-7.383717999999999,-6.809108999999999,3,92
2.949657,-13.354857,-3.998317,3,92
1.134852,-5.291186,-4.3766,3,92
-0.536301,-6.2153480000000005,-6.378153,3,92
2.48997,-7.809886,-3.672705,3,92
-1.206678,-9.433155,-2.202665,3,93
-3.1028849999999997,-4.644751,-2.456451,3,93
0.282516,-9.251195,-0.933739,3,93
-3.20823,-4.711789,0.885855,3,93
2.418144,-8.571242,-1.675941,3,93
-5.861006,-6.397307,-3.3758239999999997,3,93
2.959233,-6.081272,-3.136404,3,93
-7.805097,-8.365341,-2.130839,3,93
-0.842759,-6.119579,-1.61848,3,93
-1.814805,-7.259219,-1.043872,3,93
-0.617704,-6.301539,-1.067814,3,93
-1.685518,-8.403648,0.550666,3,93
2.48997,-15.964537,-0.8379709999999999,3,93
-0.483629,-15.078682,-6.253655,3,93
-2.633622,-17.927782,-5.453991,3,93
-2.312799,-15.825673000000002,9.706094,3,93
-0.6272810000000001,-14.772224,-5.3821650000000005,3,93
2.4660279999999997,-6.856992999999999,-4.477157,3,93
-4.6782699999999995,-6.397307,-3.993528,3,93
-1.838747,-9.935937,-3.1076740000000003,3,93
0.325611,-8.619126,-3.4428620000000003,3,93
-2.604891,-4.180276,-2.652775,3,93
-2.700659,-13.340492,-3.912125,3,93
1.642422,-8.130708,-8.681376,3,93
2.930503,-8.51857,-2.236184,3,93
-0.943315,-0.943315,0.842759,3,93
-0.057461,-7.536947,-3.112462,3,93
-2.240973,-4.7357309999999995,-0.8044520000000001,3,93
0.483629,-8.561666,-3.653551999999999,3,93
8.2169,-11.386824,-0.1005559999999999,3,93
1.106121,-7.1155669999999995,2.240973,3,94
1.355118,-8.667010000000001,1.479617,3,94
2.149993,-7.474697,5.93762,3,94
8.288725999999999,-10.783484,-3.165135,3,94
-0.991199,-19.416977,4.074930999999999,3,94
7.062895,-8.063671000000001,-0.972046,3,94
0.766145,-4.788403,-0.981623,3,94
0.02873,-6.545747,-0.6464340000000001,3,94
6.952762,-11.247959,0.344765,3,94
6.895301,-13.982138,-2.504335,3,94
-1.417367,-19.349937,0.177171,3,94
0.320823,-3.715801,-9.653421,3,94
-4.649539,-15.05474,1.192313,3,94
4.242526,-16.539145,-10.836157,3,94
6.789956,-6.947972999999999,-3.007117,3,94
0.933739,-4.606444000000001,-0.512359,3,94
3.2896330000000003,-7.469909,-0.0430959999999999,3,94
-1.6519990000000002,-17.535133,-2.2505490000000004,3,94
-6.320692,-6.196194,1.896208,3,94
-1.331176,-17.956512,-0.632069,3,94
12.133814,-18.703505,-7.508216,3,94
6.588842999999999,-10.568007,-2.60968,3,94
7.996633999999999,-5.918466,-6.646304,3,94
0.2585739999999999,-8.657434,-2.351106,3,94
-1.94888,-5.003881,2.006341,3,94
1.364695,-8.054094000000001,-3.222595,3,94
2.0302830000000003,-13.613431,-2.0302830000000003,3,94
12.411542,-13.881581,-4.386177,3,94
4.879383,-13.110648,-3.5960910000000004,3,94
1.201889,-17.908628,0.004788,3,94
2.149993,-7.474697,5.93762,3,95
8.288725999999999,-10.783484,-3.165135,3,95
-0.991199,-19.416977,4.074930999999999,3,95
7.062895,-8.063671000000001,-0.972046,3,95
0.766145,-4.788403,-0.981623,3,95
0.02873,-6.545747,-0.6464340000000001,3,95
6.952762,-11.247959,0.344765,3,95
6.895301,-13.982138,-2.504335,3,95
-1.417367,-19.349937,0.177171,3,95
0.320823,-3.715801,-9.653421,3,95
-4.649539,-15.05474,1.192313,3,95
4.242526,-16.539145,-10.836157,3,95
6.789956,-6.947972999999999,-3.007117,3,95
0.933739,-4.606444000000001,-0.512359,3,95
3.2896330000000003,-7.469909,-0.0430959999999999,3,95
-1.6519990000000002,-17.535133,-2.2505490000000004,3,95
-6.320692,-6.196194,1.896208,3,95
-1.331176,-17.956512,-0.632069,3,95
12.133814,-18.703505,-7.508216,3,95
6.588842999999999,-10.568007,-2.60968,3,95
7.996633999999999,-5.918466,-6.646304,3,95
0.2585739999999999,-8.657434,-2.351106,3,95
-1.94888,-5.003881,2.006341,3,95
1.364695,-8.054094000000001,-3.222595,3,95
2.0302830000000003,-13.613431,-2.0302830000000003,3,95
12.411542,-13.881581,-4.386177,3,95
4.879383,-13.110648,-3.5960910000000004,3,95
1.201889,-17.908628,0.004788,3,95
-6.847417,-16.74026,4.13718,3,95
-4.003105000000001,1.249773,10.716447,3,95
1.216255,-9.792285,0.636858,3,96
-2.54743,-7.086836999999999,-2.585738,3,96
-1.206678,-9.433155,-2.202665,3,96
-3.1028849999999997,-4.644751,-2.456451,3,96
0.282516,-9.251195,-0.933739,3,96
-3.20823,-4.711789,0.885855,3,96
2.418144,-8.571242,-1.675941,3,96
-5.861006,-6.397307,-3.3758239999999997,3,96
2.959233,-6.081272,-3.136404,3,96
-7.805097,-8.365341,-2.130839,3,96
-0.842759,-6.119579,-1.61848,3,96
-1.814805,-7.259219,-1.043872,3,96
-0.617704,-6.301539,-1.067814,3,96
-1.685518,-8.403648,0.550666,3,96
2.48997,-15.964537,-0.8379709999999999,3,96
-0.483629,-15.078682,-6.253655,3,96
-2.633622,-17.927782,-5.453991,3,96
-2.312799,-15.825673000000002,9.706094,3,96
-0.6272810000000001,-14.772224,-5.3821650000000005,3,96
2.4660279999999997,-6.856992999999999,-4.477157,3,96
-4.6782699999999995,-6.397307,-3.993528,3,96
-1.838747,-9.935937,-3.1076740000000003,3,96
0.325611,-8.619126,-3.4428620000000003,3,96
-2.604891,-4.180276,-2.652775,3,96
-2.700659,-13.340492,-3.912125,3,96
1.642422,-8.130708,-8.681376,3,96
2.930503,-8.51857,-2.236184,3,96
-0.943315,-0.943315,0.842759,3,96
-0.057461,-7.536947,-3.112462,3,96
-2.240973,-4.7357309999999995,-0.8044520000000001,3,96
-0.617704,-6.301539,-1.067814,3,97
-1.685518,-8.403648,0.550666,3,97
2.48997,-15.964537,-0.8379709999999999,3,97
-0.483629,-15.078682,-6.253655,3,97
-2.633622,-17.927782,-5.453991,3,97
-2.312799,-15.825673000000002,9.706094,3,97
-0.6272810000000001,-14.772224,-5.3821650000000005,3,97
2.4660279999999997,-6.856992999999999,-4.477157,3,97
-4.6782699999999995,-6.397307,-3.993528,3,97
-1.838747,-9.935937,-3.1076740000000003,3,97
0.325611,-8.619126,-3.4428620000000003,3,97
-2.604891,-4.180276,-2.652775,3,97
-2.700659,-13.340492,-3.912125,3,97
1.642422,-8.130708,-8.681376,3,97
2.930503,-8.51857,-2.236184,3,97
-0.943315,-0.943315,0.842759,3,97
-0.057461,-7.536947,-3.112462,3,97
-2.240973,-4.7357309999999995,-0.8044520000000001,3,97
0.483629,-8.561666,-3.653551999999999,3,97
8.2169,-11.386824,-0.1005559999999999,3,97
-0.124498,-9.442732,-0.842759,3,97
2.657564,-10.381259,0.665588,3,97
1.383849,-16.093823999999998,-1.479617,3,97
1.771709,-13.642160999999998,-8.920795,3,97
1.024718,-5.295974,-1.484405,3,97
2.628834,-4.697424,-3.892972,3,97
2.422932,-4.544194,1.604115,3,97
-0.229843,-7.383717999999999,-6.809108999999999,3,97
2.949657,-13.354857,-3.998317,3,97
1.134852,-5.291186,-4.3766,3,97
-2.700659,-13.340492,-3.912125,3,98
1.642422,-8.130708,-8.681376,3,98
2.930503,-8.51857,-2.236184,3,98
-0.943315,-0.943315,0.842759,3,98
-0.057461,-7.536947,-3.112462,3,98
-2.240973,-4.7357309999999995,-0.8044520000000001,3,98
0.483629,-8.561666,-3.653551999999999,3,98
8.2169,-11.386824,-0.1005559999999999,3,98
-0.124498,-9.442732,-0.842759,3,98
2.657564,-10.381259,0.665588,3,98
1.383849,-16.093823999999998,-1.479617,3,98
1.771709,-13.642160999999998,-8.920795,3,98
1.024718,-5.295974,-1.484405,3,98
2.628834,-4.697424,-3.892972,3,98
2.422932,-4.544194,1.604115,3,98
-0.229843,-7.383717999999999,-6.809108999999999,3,98
2.949657,-13.354857,-3.998317,3,98
1.134852,-5.291186,-4.3766,3,98
-0.536301,-6.2153480000000005,-6.378153,3,98
2.48997,-7.809886,-3.672705,3,98
2.6862939999999997,-16.46732,-2.336741,3,98
2.5953150000000003,-15.524004,-2.437297,3,98
-6.186617,-13.532028,-3.155558,3,98
-0.536301,-11.386824,-12.243947,3,98
-5.228936,-7.862558,-3.323152,3,98
0.316035,-8.226476,-2.5905259999999997,3,98
1.01993,-9.423578,-5.741296,3,98
-0.6272810000000001,-8.944737,-6.315904,3,98
-1.082179,-5.779603,-0.483629,3,98
1.4604629999999998,-11.267113,-1.340753,3,98
4.697424,-9.074024,-0.866701,3,99
-1.5466540000000002,-1.508347,0.3304,3,99
3.830723,-12.014104,-1.158794,3,99
2.418144,-9.002198,0.8236049999999999,3,99
3.529053,-7.436389999999999,1.905785,3,99
0.986411,-17.3005,-0.3830719999999999,3,99
-4.582502,-7.862558,9.792285,3,99
1.910573,-5.985504,-1.599327,3,99
4.458004,-6.914453999999999,-5.401319,3,99
2.475605,-8.705316999999999,-0.3734949999999999,3,99
-1.120486,-5.803545,2.044648,3,99
-2.39899,-8.451532,4.055778,3,99
5.64074,-8.566454,1.029507,3,99
-0.8283940000000001,-0.483629,10.582372,3,99
4.491523,-7.393294999999999,-1.58975,3,99
4.97994,-10.127473,-14.422671,3,99
1.106121,-7.1155669999999995,2.240973,3,99
1.355118,-8.667010000000001,1.479617,3,99
2.149993,-7.474697,5.93762,3,99
8.288725999999999,-10.783484,-3.165135,3,99
-0.991199,-19.416977,4.074930999999999,3,99
7.062895,-8.063671000000001,-0.972046,3,99
0.766145,-4.788403,-0.981623,3,99
0.02873,-6.545747,-0.6464340000000001,3,99
6.952762,-11.247959,0.344765,3,99
6.895301,-13.982138,-2.504335,3,99
-1.417367,-19.349937,0.177171,3,99
0.320823,-3.715801,-9.653421,3,99
-4.649539,-15.05474,1.192313,3,99
4.242526,-16.539145,-10.836157,3,99
-2.633622,-17.927782,-5.453991,3,100
-2.312799,-15.825673000000002,9.706094,3,100
-0.6272810000000001,-14.772224,-5.3821650000000005,3,100
2.4660279999999997,-6.856992999999999,-4.477157,3,100
-4.6782699999999995,-6.397307,-3.993528,3,100
-1.838747,-9.935937,-3.1076740000000003,3,100
0.325611,-8.619126,-3.4428620000000003,3,100
-2.604891,-4.180276,-2.652775,3,100
-2.700659,-13.340492,-3.912125,3,100
1.642422,-8.130708,-8.681376,3,100
2.930503,-8.51857,-2.236184,3,100
-0.943315,-0.943315,0.842759,3,100
-0.057461,-7.536947,-3.112462,3,100
-2.240973,-4.7357309999999995,-0.8044520000000001,3,100
0.483629,-8.561666,-3.653551999999999,3,100
8.2169,-11.386824,-0.1005559999999999,3,100
-0.124498,-9.442732,-0.842759,3,100
2.657564,-10.381259,0.665588,3,100
1.383849,-16.093823999999998,-1.479617,3,100
1.771709,-13.642160999999998,-8.920795,3,100
1.024718,-5.295974,-1.484405,3,100
2.628834,-4.697424,-3.892972,3,100
2.422932,-4.544194,1.604115,3,100
-0.229843,-7.383717999999999,-6.809108999999999,3,100
2.949657,-13.354857,-3.998317,3,100
1.134852,-5.291186,-4.3766,3,100
-0.536301,-6.2153480000000005,-6.378153,3,100
2.48997,-7.809886,-3.672705,3,100
2.6862939999999997,-16.46732,-2.336741,3,100
2.5953150000000003,-15.524004,-2.437297,3,100
-0.057461,-7.536947,-3.112462,3,101
-2.240973,-4.7357309999999995,-0.8044520000000001,3,101
0.483629,-8.561666,-3.653551999999999,3,101
8.2169,-11.386824,-0.1005559999999999,3,101
-0.124498,-9.442732,-0.842759,3,101
2.657564,-10.381259,0.665588,3,101
1.383849,-16.093823999999998,-1.479617,3,101
1.771709,-13.642160999999998,-8.920795,3,101
1.024718,-5.295974,-1.484405,3,101
2.628834,-4.697424,-3.892972,3,101
2.422932,-4.544194,1.604115,3,101
-0.229843,-7.383717999999999,-6.809108999999999,3,101
2.949657,-13.354857,-3.998317,3,101
1.134852,-5.291186,-4.3766,3,101
-0.536301,-6.2153480000000005,-6.378153,3,101
2.48997,-7.809886,-3.672705,3,101
2.6862939999999997,-16.46732,-2.336741,3,101
2.5953150000000003,-15.524004,-2.437297,3,101
-6.186617,-13.532028,-3.155558,3,101
-0.536301,-11.386824,-12.243947,3,101
-5.228936,-7.862558,-3.323152,3,101
0.316035,-8.226476,-2.5905259999999997,3,101
1.01993,-9.423578,-5.741296,3,101
-0.6272810000000001,-8.944737,-6.315904,3,101
-1.082179,-5.779603,-0.483629,3,101
1.4604629999999998,-11.267113,-1.340753,3,101
-3.835511,-12.253524,8.130709,3,101
1.776498,-7.091625,0.636858,3,101
14.164097,-11.554418,5.99987,3,101
10.864887,-1.446098,5.295975,3,101
4.491523,-7.393294999999999,-1.58975,3,102
4.97994,-10.127473,-14.422671,3,102
1.106121,-7.1155669999999995,2.240973,3,102
