accelerometer_X,accelerometer_Y,accelerometer_Z,name_id,file_id
0.914585,-10.97502,-0.167594,4,0
-6.497863,-18.2917,-3.773262,4,0
-10.103531,-11.851298,3.414132,4,0
-13.690045,-25.866954999999997,-3.150769,4,0
-12.703634,-12.23437,-1.331176,4,0
-4.362235,7.584830999999999,7.876924000000001,4,0
-0.3830719999999999,-14.188039000000002,-3.974375,4,0
-5.549759,-9.572019,-7.685387,4,0
-0.435745,-10.477027,-3.217807,4,0
-1.120486,0.708684,3.806781,4,0
-1.37906,-6.153098,-1.225831,4,0
0.967258,-7.1490860000000005,1.632846,4,0
0.062249,-13.350069,-3.438074,4,0
-13.120225,-19.948488,-4.194641000000001,4,0
-4.031835,-6.545747,-2.102109,4,0
-2.978387,-9.385271,-0.301669,4,0
-4.505887,-23.238123,0.1819589999999999,4,0
-6.4068830000000005,-12.411542,3.3614589999999995,4,0
-9.054871,-23.616405,-17.022774,4,0
-2.264915,-12.11466,-0.967257,4,0
-18.598158,-16.438589999999998,-20.738573,4,0
-3.078943,-9.528923,-2.523488,4,0
-1.393425,0.2585739999999999,4.10845,4,0
-0.7661439999999999,-7.757213,0.268151,4,0
2.25055,-6.952761,1.628057,4,0
-0.919373,-6.617572999999999,0.775721,4,0
-12.976573,-14.283808,6.306328,4,0
-2.777274,-7.029375999999999,0.612916,4,0
-11.300632,-12.646173,-2.164358,4,0
1.594538,-9.289502,19.685127,4,0
6.737284,-12.650962,4.165911,4,1
0.483629,-15.863979999999998,-2.810793,4,1
-2.576161,-14.283808,-7.249642999999999,4,1
-1.944092,-9.232041,-0.11971,4,1
-0.6608,-2.715025,-2.15957,4,1
-0.555455,-8.178592,-0.641646,4,1
-4.754884,-11.453861,-0.6464340000000001,4,1
-6.047753,-7.402871,10.022128,4,1
-5.7029879999999995,-12.052411,-1.1300629999999998,4,1
1.82917,-10.266336,18.698715,4,1
-1.11091,-15.275007,-2.102109,4,1
-5.056554,-11.473015,-12.607866,4,1
1.082179,-9.940725,-0.316035,4,1
-2.432509,-1.288081,3.203442,4,1
0.263362,-7.661445,0.105345,4,1
-0.536301,-2.092532,2.896984,4,1
-3.236961,-6.7516490000000005,-0.244209,4,1
-6.919242999999999,-11.774684,-0.799663,4,1
-7.196969999999999,-5.693412,2.202666,4,1
-9.844957,-11.971008,-1.5610190000000002,4,1
0.349553,-12.703634,14.920665,4,1
-3.701436,-14.437037,-3.701436,4,1
-8.159439,-6.038176,-2.992752,4,1
1.221043,-12.617443,1.01993,4,1
-2.221819,-0.344765,2.236184,4,1
-1.149217,-7.867347,-0.756568,4,1
1.197101,-10.960655,-1.599327,4,1
-2.37026,-17.477673,-2.624045,4,1
1.240197,-11.161768,-0.857124,4,1
-5.090072,-19.632454,-3.3279400000000003,4,1
-1.010353,-13.809755,-3.926491,4,2
-2.935291,-13.589489000000002,-14.255076999999998,4,2
-1.23062,-14.681245,-3.045424,4,2
-5.214571,-10.342952,-7.52737,4,2
-5.0086699999999995,-7.972691,-2.097321,4,2
-2.75812,-1.805228,1.23062,4,2
-2.236184,-9.749189,-1.719037,4,2
-2.5809490000000004,-9.983821,-1.929727,4,2
-3.730166000000001,-14.508862,8.355765,4,2
-2.566584,-12.583924,-5.583278,4,2
3.174712,-4.903325,-1.388637,4,2
-9.892841,-10.91756,1.015142,4,2
6.737284,-12.650962,4.165911,4,2
0.483629,-15.863979999999998,-2.810793,4,2
-2.576161,-14.283808,-7.249642999999999,4,2
-1.944092,-9.232041,-0.11971,4,2
-0.6608,-2.715025,-2.15957,4,2
-0.555455,-8.178592,-0.641646,4,2
-4.754884,-11.453861,-0.6464340000000001,4,2
-6.047753,-7.402871,10.022128,4,2
-5.7029879999999995,-12.052411,-1.1300629999999998,4,2
1.82917,-10.266336,18.698715,4,2
-1.11091,-15.275007,-2.102109,4,2
-5.056554,-11.473015,-12.607866,4,2
1.082179,-9.940725,-0.316035,4,2
-2.432509,-1.288081,3.203442,4,2
0.263362,-7.661445,0.105345,4,2
-0.536301,-2.092532,2.896984,4,2
-3.236961,-6.7516490000000005,-0.244209,4,2
-6.919242999999999,-11.774684,-0.799663,4,2
-0.363919,-3.083732,1.091756,4,3
-5.080496,-8.508992999999998,0.2489969999999999,4,3
-8.772355000000001,-13.833697,-0.8236049999999999,4,3
-4.055777,-8.959103,0.0909799999999999,4,3
-4.070143,-12.933477,5.31034,4,3
-9.303867,-14.441825,-7.800309,4,3
0.790087,-12.253524,-1.575385,4,3
-2.916138,-2.60968,1.675941,4,3
-3.174711,-9.629479,-1.94888,4,3
-8.020575,-14.662091,-1.527501,4,3
-3.260903,-3.064578,37.138855,4,3
-3.931279,-14.068329,6.052542,4,3
-14.45619,-15.107412,-13.393165,4,3
1.431733,-12.698846,-2.4085669999999997,4,3
-2.011129,-1.403002,2.097321,4,3
-1.877054,-9.428367,-2.499546,4,3
-10.093954,-13.819332,-1.192312,4,3
-0.919373,-2.0302830000000003,22.634783,4,3
0.201113,-12.531252,0.3830719999999999,4,3
-14.188039000000002,-19.895817,-11.219229,4,3
1.853112,-13.953407,-1.4604629999999998,4,3
-1.288081,-1.877054,0.976834,4,3
-0.3734949999999999,-8.973467999999999,-1.905785,4,3
-6.488286,-11.918336,-4.122815,4,3
-12.995727,-3.782838,-15.691598,4,3
0.272939,-17.750612,-1.158794,4,3
-8.51857,-11.722012,-14.317327,4,3
-4.266467,-7.273585000000001,-1.091756,4,3
-11.927913,-14.168885,-15.164873000000002,4,3
-1.867477,-7.599196000000001,1.1683709999999998,4,3
-19.541473,-22.85505,-12.406754,4,4
-4.1419690000000005,-13.038822,-0.411803,4,4
-10.366894,-12.368446,-9.41879,4,4
-1.393425,-13.235147,-2.2601259999999996,4,4
-16.79772,-12.310986,-15.040375,4,4
-5.521029,-7.905653999999999,-2.9975400000000003,4,4
-1.628057,0.349553,2.873042,4,4
-6.411672,-6.186617,-1.436521,4,4
-6.526593,-11.501745,-1.225831,4,4
-1.843535,-5.410896,12.77546,4,4
0.464475,-13.848063,-2.470816,4,4
-18.200722,-15.658079,-15.959748,4,4
-5.200206,-9.552865,-3.351882,4,4
-8.681376,-16.342821,-14.154520000000002,4,4
-2.4851810000000003,-10.615891,-1.584961,4,4
-2.30801,-0.885855,2.825158,4,4
-2.422932,-8.882488,-0.708684,4,4
-4.716577,-11.908759,-0.866701,4,4
-3.409343,-21.045033,-1.838747,4,4
-3.4189199999999995,-16.836026999999998,3.136404,4,4
-10.55843,-16.180016000000002,-13.627796,4,4
-12.138602,-17.477673,5.032612,4,4
-21.346703,-25.905262,-17.650055,4,4
-2.671929,-12.196063,-1.403002,4,4
-16.270994,-14.595054,-17.659632000000002,4,4
-4.458003,-6.8186860000000005,-2.269703,4,4
-0.708684,-1.532289,3.3375169999999996,4,4
-5.564124,-4.505887,-0.842759,4,4
0.914585,-10.97502,-0.167594,4,4
-6.497863,-18.2917,-3.773262,4,4
-3.122039,-8.528147,-1.805228,4,5
-1.206678,-3.174711,2.03986,4,5
-4.122815,-8.911219000000001,-1.517924,4,5
-8.528147,-12.081141,-0.272939,4,5
-6.028599,-1.163582,1.905785,4,5
-2.710236,-14.719551999999998,-2.571372,4,5
-16.462529999999997,-15.404294,-22.965183,4,5
-1.833958,-7.833828,3.394978,4,5
-1.532289,-3.969586,1.580173,4,5
-2.710236,-7.292738000000001,2.169147,4,5
-1.244985,-4.098873,1.221043,4,5
-5.640739,-8.049306,0.885855,4,5
-8.8777,-13.637373,-0.0430959999999999,4,5
-9.404425,-12.540829,-4.7788260000000005,4,5
-5.152322,-11.664551,-0.11971,4,5
-2.753332,-6.291962,-5.746084,4,5
-1.039083,-7.517792999999999,2.427721,4,5
-2.60968,-5.894524,-6.445191,4,5
-2.533065,-7.378928999999999,0.981623,4,5
0.967258,-6.8761470000000005,1.637634,4,5
-2.959233,-8.700529,-2.245761,4,5
-6.584053999999999,-11.971008,-0.8906430000000001,4,5
-2.1883,-9.404425,-7.675811,4,5
3.117251,-11.267113,-1.053449,4,5
-0.7852979999999999,-1.173159,2.226608,4,5
-7.139508999999999,-7.85777,-3.974375,4,5
-1.47004,-3.39019,2.1787240000000003,4,5
-5.3821650000000005,-8.542512,1.647211,4,5
-4.505887,-12.856863,5.568912999999999,4,5
-8.858546,-13.220781,-9.064447,4,5
-0.857124,-3.2561139999999997,2.006341,4,6
-4.118027,-9.174581,-0.670376,4,6
-8.350976,-14.920665,-1.182736,4,6
3.634398000000001,7.613562,24.109612,4,6
-4.352658,-12.550406,-1.489193,4,6
-9.514558,-10.247183,-9.11712,4,6
-3.744531,-8.437167,0.167594,4,6
-2.614468,-2.652775,3.897761,4,6
-1.321599,-8.729258999999999,-1.522712,4,6
-4.707,-10.563218,-1.762132,4,6
4.941633,-15.897499,23.367409,4,6
0.086191,-14.302960999999998,-3.519476,4,6
-6.0333879999999995,-10.907983,-9.830592,4,6
-2.456451,-15.820885,-2.954445,4,6
-3.380613,-7.608772999999999,-4.405330999999999,4,6
-4.343082,-7.522581,-2.528277,4,6
-1.201889,-3.581726,2.959233,4,6
-4.534618,-8.571242,0.057461,4,6
-7.354987,-12.646173,-1.005565,4,6
-9.605537,-11.865664,-9.581595,4,6
-1.096544,-11.640609,-0.751779,4,6
-1.924938,-7.28795,-3.792415,4,6
-4.869806,-7.704541000000001,-0.665588,4,6
-1.331176,-3.3279400000000003,1.484405,4,6
-5.195418,-8.652645,0.948104,4,6
-5.487509999999999,-10.400413,2.60968,4,6
-5.717354,-7.680599000000001,-5.90889,4,6
0.440533,-12.220005,-4.927267,4,6
-2.576161,-3.217807,1.374272,4,6
-4.501099,-7.987056,-1.584961,4,6
-2.0302830000000003,-7.254430999999999,-0.02873,4,7
-2.657564,0.430956,2.892196,4,7
-3.811569,-6.722917999999999,-1.637634,4,7
-0.464475,-10.721235,-0.895431,4,7
-5.8274870000000005,-13.512875,3.447651,4,7
-3.509899,-17.070657999999998,-1.934515,4,7
-4.434061,-6.004657,-3.543418,4,7
0.354342,-12.789825,-1.053449,4,7
-3.3279400000000003,-0.435745,3.093309,4,7
2.149993,-13.388376,-2.37026,4,7
-2.504335,-1.072602,1.024718,4,7
-2.777274,-7.244853999999999,-0.397437,4,7
-0.8044520000000001,-6.196194,2.547431,4,7
-1.244985,-12.339716,1.881843,4,7
-12.89517,-13.129802,5.564125,4,7
-10.611102,-22.874203,-14.049175,4,7
-2.317587,-10.955867,-1.489193,4,7
-2.245761,-7.0245869999999995,-7.177817,4,7
-0.47884,-12.162544,-1.484405,4,7
-0.215478,-1.326388,0.617704,4,7
-1.537077,-8.461109,0.1005559999999999,4,7
2.121263,-8.48984,1.283292,4,7
-4.122815,-7.728483,1.5466540000000002,4,7
-11.439496,-15.030798,6.354212,4,7
-9.208099,-20.561403,3.979163,4,7
-4.3478699999999995,-12.320562,-3.4811690000000004,4,7
1.977611,-1.580173,15.801731,4,7
-4.520251999999999,-12.330139,-3.77805,4,7
-4.692635,-10.630256,-15.691598,4,7
-3.864241,-7.690175999999999,-1.94888,4,7
-6.0333879999999995,-10.907983,-9.830592,4,8
-2.456451,-15.820885,-2.954445,4,8
-3.380613,-7.608772999999999,-4.405330999999999,4,8
-4.343082,-7.522581,-2.528277,4,8
-1.201889,-3.581726,2.959233,4,8
-4.534618,-8.571242,0.057461,4,8
-7.354987,-12.646173,-1.005565,4,8
-9.605537,-11.865664,-9.581595,4,8
-1.096544,-11.640609,-0.751779,4,8
-1.924938,-7.28795,-3.792415,4,8
-4.869806,-7.704541000000001,-0.665588,4,8
-1.331176,-3.3279400000000003,1.484405,4,8
-5.195418,-8.652645,0.948104,4,8
-5.487509999999999,-10.400413,2.60968,4,8
-5.717354,-7.680599000000001,-5.90889,4,8
0.440533,-12.220005,-4.927267,4,8
-2.576161,-3.217807,1.374272,4,8
-4.501099,-7.987056,-1.584961,4,8
-1.40779,-4.893748,1.206678,4,8
-7.029375999999999,-7.723694999999999,-0.287304,4,8
-6.023811,-10.070012,0.3926489999999999,4,8
-7.570465,-12.009315,-5.84664,4,8
0.656011,-11.736377,-2.542642,4,8
-1.719037,-2.930503,2.389413,4,8
-3.600879,-8.681376,-2.1883,4,8
-2.39899,-3.567361,1.790863,4,8
-6.976703,-7.814674,0.857124,4,8
-5.722142,-13.804967,4.845865,4,8
-6.354211,-12.641385,-7.929596000000001,4,8
1.158794,-13.206416,-0.177171,4,8
-4.505887,-12.856863,5.568912999999999,4,9
-8.858546,-13.220781,-9.064447,4,9
1.728614,-13.359646,0.842759,4,9
-1.537077,-2.327164,1.393425,4,9
-1.307234,-8.303091,-2.63841,4,9
-3.323152,-9.849746,-1.61848,4,9
-2.0494369999999997,-8.082824,-2.6910830000000003,4,9
-1.934515,-11.789049,1.063026,4,9
2.60968,-12.583924,1.953669,4,9
-2.954445,-15.538369,-3.347094,4,9
-3.169923,-8.686164,-6.880935000000001,4,9
2.3558950000000003,-13.431472,0.622492,4,9
-1.599327,-1.537077,2.4660279999999997,4,9
-3.371036,-8.724471000000001,-0.737414,4,9
-7.398083,-13.077129,-1.541866,4,9
-5.39653,-9.093178,-0.033519,4,9
-4.582502,-14.00608,0.866701,4,9
-9.873688,-13.512875,-13.302185,4,9
-3.936067,-12.339716,-1.058237,4,9
-1.733402,-5.492298,-5.228936,4,9
-2.925714,-7.062895,0.110133,4,9
0.220267,-9.337387,3.5194769999999997,4,9
2.48997,-22.471977,-3.806781,4,9
-3.4428620000000003,-12.129025,-1.177947,4,9
-14.973337,-6.234501,-11.702858,4,9
-2.7724849999999996,-13.929465,-0.6464340000000001,4,9
-12.430696,-9.524135,-12.808979,4,9
-4.118027,-8.030152000000001,-0.775721,4,9
-0.363919,-3.083732,1.091756,4,9
-5.080496,-8.508992999999998,0.2489969999999999,4,9
-8.714894000000001,-11.166556,-1.40779,4,10
-3.490746,-13.613431,17.472883,4,10
-0.866701,-16.481684,-2.657564,4,10
-3.615245,-10.050858,-5.875371,4,10
-4.218583,-9.198523,-2.06859,4,10
-1.005565,-3.462016,2.020706,4,10
-3.122039,-8.528147,-1.805228,4,10
-1.206678,-3.174711,2.03986,4,10
-4.122815,-8.911219000000001,-1.517924,4,10
-8.528147,-12.081141,-0.272939,4,10
-6.028599,-1.163582,1.905785,4,10
-2.710236,-14.719551999999998,-2.571372,4,10
-16.462529999999997,-15.404294,-22.965183,4,10
-1.833958,-7.833828,3.394978,4,10
-1.532289,-3.969586,1.580173,4,10
-2.710236,-7.292738000000001,2.169147,4,10
-1.244985,-4.098873,1.221043,4,10
-5.640739,-8.049306,0.885855,4,10
-8.8777,-13.637373,-0.0430959999999999,4,10
-9.404425,-12.540829,-4.7788260000000005,4,10
-5.152322,-11.664551,-0.11971,4,10
-2.753332,-6.291962,-5.746084,4,10
-1.039083,-7.517792999999999,2.427721,4,10
-2.60968,-5.894524,-6.445191,4,10
-2.533065,-7.378928999999999,0.981623,4,10
0.967258,-6.8761470000000005,1.637634,4,10
-2.959233,-8.700529,-2.245761,4,10
-6.584053999999999,-11.971008,-0.8906430000000001,4,10
-2.1883,-9.404425,-7.675811,4,10
3.117251,-11.267113,-1.053449,4,10
-12.976573,-14.283808,6.306328,4,11
-2.777274,-7.029375999999999,0.612916,4,11
-11.300632,-12.646173,-2.164358,4,11
1.594538,-9.289502,19.685127,4,11
-0.742202,-13.953407,-0.8044520000000001,4,11
-17.51598,-14.374787,-16.965311,4,11
-4.386177,-9.212888,-5.157109999999999,4,11
-1.833958,-1.249773,3.399767,4,11
-4.955997,-5.837064,-0.143652,4,11
1.599327,-11.042058,-1.383848,4,11
-2.60968,-18.066647,-7.034164,4,11
1.5466540000000002,-7.249642999999999,1.719037,4,11
-0.981623,-10.711658,2.245761,4,11
-13.953407,-16.64449,4.553772,4,11
-5.137956,3.366248,-1.316811,4,11
-1.781286,-14.72434,-3.921702,4,11
-8.322244,-15.035586,-17.142485,4,11
3.749319999999999,-11.592725,0.134075,4,11
-1.01993,-0.59855,0.924162,4,11
-1.340753,-8.283937,1.173159,4,11
0.339977,-2.916138,3.428497,4,11
-2.863465,-8.676587,0.45011,4,11
-9.212888,-12.258312,-0.756568,4,11
-1.120486,4.151546,-10.984597,4,11
-7.168239999999999,-11.69807,-2.346318,4,11
0.1819589999999999,-0.593762,34.261024,4,11
-2.274491,-13.005303,-3.5625720000000003,4,11
-6.919242999999999,-9.653421,-4.271256,4,11
-0.1005559999999999,-9.682152,-0.881066,4,11
-1.790863,-0.244209,2.533065,4,11
-0.622492,-2.614468,2.762909,4,12
-5.894524,-8.925583999999999,-1.814805,4,12
-11.889606,-15.021221,4.548983,4,12
-19.962854,-27.552473,-9.174581,4,12
-1.436521,-12.785037,0.272939,4,12
-4.055777,-6.995857000000001,-10.673351,4,12
-3.62961,-6.856992999999999,-1.2162540000000002,4,12
-2.2313959999999997,-10.304645,-3.888183,4,12
-4.31914,-9.289502,-1.158794,4,12
-10.036493,-12.291832,4.003105000000001,4,12
-8.068458999999999,-14.762648,-9.653421,4,12
2.116475,-12.50731,-1.513135,4,12
-0.641646,-2.700659,2.020706,4,12
-0.004788,-6.9096660000000005,-0.713472,4,12
-0.148441,-11.238382,-0.052672,4,12
-4.999093,-15.088259,6.363788,4,12
-4.726154,-11.003751,-3.682282,4,12
-2.671929,5.755661,9.552865,4,12
-2.7437549999999997,-11.903971,1.005565,4,12
-2.418144,-3.782838,-0.651223,4,12
-3.677494,-6.890511999999999,-1.7860740000000002,4,12
-0.545878,-10.237606,-2.126051,4,12
-6.675033999999999,-11.420342,31.636982,4,12
-2.418144,-14.178462,-2.987964,4,12
-9.605537,-5.688623000000001,-5.099648999999999,4,12
-2.944868,-12.564771,-2.169147,4,12
-19.49359,-14.154520000000002,-12.832921,4,12
-3.907337,-7.139508999999999,-2.236184,4,12
-0.632069,-4.692635,0.976834,4,12
-5.468356,-9.093178,0.7182609999999999,4,12
-9.423578,-13.239935999999998,-8.911219000000001,4,13
2.245761,-12.689269,-2.504335,4,13
-1.733402,-1.3982139999999998,2.442086,4,13
0.349553,-7.958326,-1.015141,4,13
-0.421379,-10.97502,0.545878,4,13
-4.055777,-18.464083,1.953669,4,13
1.106121,-13.872005,-3.921702,4,13
-8.058882,8.834603999999999,-20.499157,4,13
-3.29921,-14.762648,-2.494758,4,13
-12.641385,-16.026787,-18.248606,4,13
-2.901772,-7.144297999999999,1.063026,4,13
-1.5466540000000002,-4.046201,2.571373,4,13
-5.329493,-7.580042,1.776498,4,13
-9.595961,-15.279796,-0.272939,4,13
-7.991845,-13.43626,13.254301000000002,4,13
-9.332599,-12.397177,4.395755,4,13
-6.952761,-11.918336,-5.731719,4,13
2.111686,-13.761871,-0.919373,4,13
-1.345541,-0.895431,3.591303,4,13
0.435745,-10.548853,-1.403002,4,13
-7.125144000000001,-13.737929,-2.557007,4,13
-1.623269,8.140286,9.835381,4,13
-5.12838,-11.951855,-1.953669,4,13
-9.811439,-22.132,-13.053187,4,13
-1.412579,-11.271901,-0.426168,4,13
-1.551443,-3.078943,-1.063026,4,13
0.3304,-7.809886,-0.933739,4,13
1.580173,-10.448297,-0.287304,4,13
-2.164358,-19.077,-3.643975,4,13
0.282516,-15.500062,-3.864241,4,13
-9.428367,-13.694834,2.710236,4,14
-10.199299,-19.479225,-7.800309,4,14
-3.5721489999999996,-10.840945,-2.600103,4,14
-0.962469,8.777142999999999,7.498639999999999,4,14
-10.812215,-19.843143,-1.225831,4,14
-15.102624,-27.284322999999997,-22.67788,4,14
3.993528,-12.028469,1.283292,4,14
-1.235408,-2.111686,2.3606830000000003,4,14
-1.517924,-6.588842999999999,-1.934515,4,14
3.236961,-9.083601,-0.651223,4,14
-0.306458,-21.064186,-5.27682,4,14
1.221043,-10.94629,-1.374272,4,14
-1.982399,-18.646044,3.72059,4,14
0.8619129999999999,-15.413871,-3.701436,4,14
-3.3375169999999996,-6.569689,-5.4300489999999995,4,14
-4.237737,-7.589619,-2.4851810000000003,4,14
-1.455675,-2.829946,2.552219,4,14
-3.955221,-7.264008,0.742203,4,14
-10.026917,-15.107412,3.591303,4,14
0.110133,-17.401058,-6.4068830000000005,4,14
-3.2321720000000003,-17.448942000000002,-2.5905259999999997,4,14
-1.383848,-4.194641000000001,-5.583278,4,14
-3.275268,-10.070012,-2.164358,4,14
-1.388637,-2.298433,1.857901,4,14
-6.133945,-8.504205,-1.61848,4,14
-10.357317,-13.675679999999998,0.943315,4,14
-15.02601,-28.773515999999997,-33.94978,4,14
-9.988609,-13.417107,5.061342,4,14
-9.423578,-13.239935999999998,-8.911219000000001,4,14
2.245761,-12.689269,-2.504335,4,14
-0.641646,-2.700659,2.020706,4,15
-0.004788,-6.9096660000000005,-0.713472,4,15
-0.148441,-11.238382,-0.052672,4,15
-4.999093,-15.088259,6.363788,4,15
-4.726154,-11.003751,-3.682282,4,15
-2.671929,5.755661,9.552865,4,15
-2.7437549999999997,-11.903971,1.005565,4,15
-2.418144,-3.782838,-0.651223,4,15
-3.677494,-6.890511999999999,-1.7860740000000002,4,15
-0.545878,-10.237606,-2.126051,4,15
-6.675033999999999,-11.420342,31.636982,4,15
-2.418144,-14.178462,-2.987964,4,15
-9.605537,-5.688623000000001,-5.099648999999999,4,15
-2.944868,-12.564771,-2.169147,4,15
-19.49359,-14.154520000000002,-12.832921,4,15
-3.907337,-7.139508999999999,-2.236184,4,15
-0.632069,-4.692635,0.976834,4,15
-5.468356,-9.093178,0.7182609999999999,4,15
-10.644621,-13.589489000000002,2.15957,4,15
-12.11466,-16.812084,-7.086836999999999,4,15
-1.264138,-15.126566,-2.983175,4,15
-2.116474,-8.772355000000001,-7.230489,4,15
-3.409343,-7.666233999999999,-0.397437,4,15
-0.90022,-2.796427,2.341529,4,15
-5.190629,-10.625467,-0.45011,4,15
-9.734824,-13.991714000000002,2.676718,4,15
-4.960786,-10.529699,-3.940856,4,15
2.710236,-12.708423,-0.857124,4,15
-1.6807299999999998,-10.754754,-9.466674,4,15
-3.284845,-7.517792999999999,-0.220267,4,15
-2.351106,-3.117251,-0.1292869999999999,4,16
-1.580173,-6.981492,-0.287304,4,16
2.106898,-9.619903,1.939303,4,16
-1.848324,-6.363788,-0.612916,4,16
2.782062,-10.644621,1.158794,4,16
3.241749,-14.010868,-3.4955339999999997,4,16
-9.184157,-11.104307,0.138864,4,16
0.019154,-1.000776,-7.522581,4,16
3.39019,-10.984597,-5.195418,4,16
-1.881842,-2.102109,3.308787,4,16
-0.986411,-8.020575,-0.8379709999999999,4,16
-1.790863,-1.58975,2.624045,4,16
-3.423708,-6.8426279999999995,-1.872266,4,16
-3.351882,-11.233594,-1.206678,4,16
-4.548983,-16.189592,12.35887,4,16
-4.367024,-15.35641,-1.474828,4,16
-0.679953,-7.139508999999999,-6.900089,4,16
5.76045,-13.503298,-3.4428620000000003,4,16
-1.7525560000000002,-1.7477669999999998,1.82917,4,16
3.375825,-12.41633,-4.3239279999999995,4,16
-1.7860740000000002,-1.331176,3.505111,4,16
-1.197101,-8.044516999999999,0.335188,4,16
3.0214830000000004,-7.675811,1.201889,4,16
-2.365471,-7.220911999999999,1.187524,4,16
-9.428367,-13.694834,2.710236,4,16
-10.199299,-19.479225,-7.800309,4,16
-3.5721489999999996,-10.840945,-2.600103,4,16
-0.962469,8.777142999999999,7.498639999999999,4,16
-10.812215,-19.843143,-1.225831,4,16
-15.102624,-27.284322999999997,-22.67788,4,16
-2.509123,-4.333505000000001,-8.006210000000001,4,17
-2.375048,-7.340622,-0.895431,4,17
-1.192312,-4.309563,1.580173,4,17
-4.232949,-9.481039,0.727837,4,17
-6.789956,-12.454638,1.503559,4,17
1.010353,-7.862558,-6.50744,4,17
1.632846,-11.295844,-4.43885,4,17
-2.576161,-2.959233,1.465252,4,17
-0.7230489999999999,-10.395624,-1.671153,4,17
-6.325481,-13.876793,-2.94008,4,17
-2.39899,-9.763555,-1.479617,4,17
-5.990292,-13.704411,2.0254950000000003,4,17
-4.9512089999999995,-19.34036,-20.058622,4,17
-0.8379709999999999,-11.45865,1.000776,4,17
-1.637634,-5.4970870000000005,-5.7029879999999995,4,17
-0.679953,-8.202534,1.039084,4,17
1.886631,-6.9096660000000005,0.842759,4,17
3.3614589999999995,-12.334928,-2.0254950000000003,4,17
4.161122,-10.208876,0.962469,4,17
4.711789,-14.96376,6.66067,4,17
0.80924,-15.897499,-1.666364,4,17
-3.356671,-13.153744,-12.804191,4,17
1.426944,-5.262455,-0.651223,4,17
-0.263362,-6.019023000000001,1.235408,4,17
-4.352658,-9.32781,0.713472,4,17
-3.955221,-16.49605,3.438074,4,17
-2.705448,-7.436389999999999,1.383849,4,17
-4.577713,-17.645266,1.944092,4,17
7.192182000000001,-25.201366,-16.903064999999998,4,17
1.575385,-10.620679,1.58975,4,17
-3.921702,-18.947712,5.966351,4,18
0.981623,-8.935161,-1.762132,4,18
-0.90022,-16.060305,5.224149,4,18
15.169662,-11.453861,38.426937,4,18
6.042965000000001,-11.836933,0.6033390000000001,4,18
-4.960786,-15.935806,-19.07221,4,18
0.0909799999999999,-6.574477000000001,0.067038,4,18
0.670377,-3.007117,3.332729,4,18
-1.441309,-8.959103,1.086968,4,18
-1.719037,-2.801216,3.3039980000000004,4,18
-0.957681,-7.843405000000001,1.833959,4,18
-3.29921,-14.465767,-1.316811,4,18
-7.005433999999999,3.8403,4.070143,4,18
9.184157,-15.14572,-2.145205,4,18
-0.148441,-14.709975,-9.093178,4,18
1.067814,-9.77792,-1.115698,4,18
-3.2896330000000003,-0.124498,4.76925,4,18
2.154782,-13.196839,-7.738060000000001,4,18
-2.901772,-1.383848,4.726155,4,18
0.952892,-8.523358,0.071826,4,18
9.294291,-7.747636999999999,0.316035,4,18
6.2153480000000005,-17.21431,1.82917,4,18
-3.371036,-14.159308,4.625598,4,18
6.114791,-32.996887,-21.188684,4,18
0.732626,-12.215217,0.909797,4,18
-6.833050999999999,11.482592,3.639187,4,18
0.411803,-13.800179,-2.753332,4,18
0.8044520000000001,-19.876663,-16.802507000000002,4,18
-0.531513,-11.453861,-0.761356,4,18
-4.510676,-2.72939,4.999093,4,18
-0.531513,-11.453861,-0.761356,4,19
-4.510676,-2.72939,4.999093,4,19
-1.335964,-5.363012,-4.103661,4,19
0.435745,-11.075577,-1.872266,4,19
-6.430825,-13.651738,9.198523,4,19
4.955998,-8.738836000000001,-0.35913,4,19
2.011129,-21.796812,5.157111,4,19
-2.284068,-15.552734,6.861782000000001,4,19
-6.397307,-21.274876000000003,6.397307,4,19
3.557784,-13.244724,-5.075707,4,19
-1.264138,-19.019539,-19.88145,4,19
-1.331176,-5.78918,1.6519990000000002,4,19
-3.002329,-2.911349,3.332729,4,19
-2.700659,-7.852981,1.647211,4,19
-3.801992,-1.714248,3.749319999999999,4,19
-0.536301,-6.172251999999999,0.6608,4,19
4.774039,-11.152191,-2.020706,4,19
-1.733402,7.862559,3.265691,4,19
1.134852,-9.844957,0.067038,4,19
-3.093309,-1.331176,2.877831,4,19
2.346318,-8.140285,-4.750096,4,19
0.2585739999999999,-14.413095000000002,-1.383848,4,19
0.35913,-9.337387,-1.82917,4,19
1.422156,-9.983821,-0.742202,4,19
-8.868122999999999,-16.448166,8.331822,4,19
-2.5953150000000003,-15.605407,-4.0845080000000005,4,19
-0.622492,-5.530606,-6.698975999999999,4,19
5.492299,-11.353305,2.365471,4,19
-1.61848,-1.326388,-0.205901,4,19
0.105345,-4.601655,3.1028860000000003,4,19
0.622492,-1.872266,3.198654,4,20
-3.045424,-8.939949,2.552219,4,20
-6.339846,-14.437037,0.756568,4,20
-5.06613,-20.140024,-7.987056,4,20
-3.801992,-11.659762,5.090073,4,20
-6.947972999999999,-16.668432,-12.847286,4,20
-0.459687,-11.812991,-1.4987700000000002,4,20
-1.762132,-7.666233999999999,-5.904101,4,20
-0.814029,-8.480263,-0.244209,4,20
-0.268151,-4.070143,2.710236,4,20
1.221043,-12.698846,-1.206678,4,20
-4.582502,-10.654198,-0.8283940000000001,4,20
-2.509123,-4.333505000000001,-8.006210000000001,4,20
-2.375048,-7.340622,-0.895431,4,20
-1.192312,-4.309563,1.580173,4,20
-4.232949,-9.481039,0.727837,4,20
-6.789956,-12.454638,1.503559,4,20
1.010353,-7.862558,-6.50744,4,20
1.632846,-11.295844,-4.43885,4,20
-2.576161,-2.959233,1.465252,4,20
-0.7230489999999999,-10.395624,-1.671153,4,20
-6.325481,-13.876793,-2.94008,4,20
-2.39899,-9.763555,-1.479617,4,20
-5.990292,-13.704411,2.0254950000000003,4,20
-4.9512089999999995,-19.34036,-20.058622,4,20
-0.8379709999999999,-11.45865,1.000776,4,20
-1.637634,-5.4970870000000005,-5.7029879999999995,4,20
-0.679953,-8.202534,1.039084,4,20
1.886631,-6.9096660000000005,0.842759,4,20
3.3614589999999995,-12.334928,-2.0254950000000003,4,20
-9.605537,-5.688623000000001,-5.099648999999999,4,21
-2.944868,-12.564771,-2.169147,4,21
-19.49359,-14.154520000000002,-12.832921,4,21
-3.907337,-7.139508999999999,-2.236184,4,21
-0.632069,-4.692635,0.976834,4,21
-5.468356,-9.093178,0.7182609999999999,4,21
-10.644621,-13.589489000000002,2.15957,4,21
-12.11466,-16.812084,-7.086836999999999,4,21
-1.264138,-15.126566,-2.983175,4,21
-2.116474,-8.772355000000001,-7.230489,4,21
-3.409343,-7.666233999999999,-0.397437,4,21
-0.90022,-2.796427,2.341529,4,21
-5.190629,-10.625467,-0.45011,4,21
-9.734824,-13.991714000000002,2.676718,4,21
-4.960786,-10.529699,-3.940856,4,21
2.710236,-12.708423,-0.857124,4,21
-1.6807299999999998,-10.754754,-9.466674,4,21
-3.284845,-7.517792999999999,-0.220267,4,21
-2.327164,-3.3039980000000004,1.56102,4,21
-3.835511,-9.600749,0.943315,4,21
-6.560111999999999,-15.083470000000002,-1.359906,4,21
-1.383848,-8.480263,32.312145,4,21
-2.786851,-12.694057,0.1915359999999999,4,21
-13.421895,-11.247959,-15.5671,4,21
1.6807299999999998,-12.26789,1.23062,4,21
-2.542642,-3.064578,1.881843,4,21
-5.21936,-8.571242,-0.976834,4,21
-9.509769,-16.52478,4.477157,4,21
-9.964667,-15.600618,-6.4212489999999995,4,21
0.02873,-12.526464,-3.165135,4,21
-7.599196000000001,6.143522,-3.3614589999999995,4,22
7.479486,-14.829685,-2.384625,4,22
4.505888,-16.874334,-10.941502,4,22
-0.335188,-8.719683,-0.272939,4,22
-2.954445,-2.681506,3.323152,4,22
0.057461,-8.968679,0.943315,4,22
-1.383848,-3.519476,4.462791999999999,4,22
2.786851,-10.237606,-9.380483,4,22
-7.575253999999999,-19.34515,-1.728614,4,22
-5.3725879999999995,5.985504,-10.060435,4,22
1.80044,-14.015656,-3.744531,4,22
-6.924030999999999,-8.5473,-8.025364,4,22
-0.234632,-12.119449,-2.930503,4,22
-4.127603,-11.324574,-9.524135,4,22
1.091756,-10.577583,5.621586,4,22
-4.515464,-0.325611,3.806781,4,22
-1.939303,-6.823475,-4.127603,4,22
0.646435,-9.902418,-0.7038949999999999,4,22
-0.670376,-20.470425,-3.4189199999999995,4,22
4.343082,-16.515203,-5.425261,4,22
3.787627,0.641646,-6.488286,4,22
-0.694318,-16.055517000000002,-3.782838,4,22
-2.389413,-13.9151,-11.070788,4,22
5.276821,-11.688493,-10.261548,4,22
2.786851,-4.390966000000001,-6.981492,4,22
3.466804,-7.196969999999999,-1.024718,4,22
2.140417,-6.708553,2.70066,4,22
8.566454,-18.7466,-3.892972,4,22
-3.1076740000000003,-15.184027,6.0333879999999995,4,22
1.455675,-10.429143,-1.637634,4,22
-0.234632,-12.119449,-2.930503,4,23
-4.127603,-11.324574,-9.524135,4,23
1.091756,-10.577583,5.621586,4,23
-4.515464,-0.325611,3.806781,4,23
-1.939303,-6.823475,-4.127603,4,23
0.646435,-9.902418,-0.7038949999999999,4,23
-0.670376,-20.470425,-3.4189199999999995,4,23
4.343082,-16.515203,-5.425261,4,23
3.787627,0.641646,-6.488286,4,23
-0.694318,-16.055517000000002,-3.782838,4,23
-2.389413,-13.9151,-11.070788,4,23
5.276821,-11.688493,-10.261548,4,23
2.786851,-4.390966000000001,-6.981492,4,23
3.466804,-7.196969999999999,-1.024718,4,23
2.140417,-6.708553,2.70066,4,23
8.566454,-18.7466,-3.892972,4,23
-3.1076740000000003,-15.184027,6.0333879999999995,4,23
1.455675,-10.429143,-1.637634,4,23
1.513135,-12.26789,6.200983,4,23
-3.2321720000000003,-2.557007,31.052795,4,23
2.0254950000000003,-13.508086,-5.597643,4,23
-2.03986,-24.267628,-24.856602,4,23
0.320823,-7.704541000000001,-0.277727,4,23
-1.374272,-3.5769370000000005,5.171476,4,23
2.39899,-10.376471,-2.1787229999999997,4,23
-3.0502130000000003,-1.968034,4.41012,4,23
-3.605668,-6.110002,-1.7573439999999998,4,23
1.771709,-9.974244,0.986411,4,23
5.750873,-19.982008,-0.770933,4,23
-3.533841,-16.395493,-3.3375169999999996,4,23
-0.8762780000000001,-10.448297,-2.044648,4,24
-3.260903,-15.073894,5.382166000000001,4,24
-1.465251,-12.741941,-2.853888,4,24
-1.106121,-8.858546,-6.445191,4,24
-0.742202,-15.524004,-3.77805,4,24
1.010353,-14.911088,-8.317456,4,24
-1.9919759999999995,-9.342175,-2.7437549999999997,4,24
-2.2601259999999996,-2.796427,0.426168,4,24
-6.028599,-6.947972999999999,-1.268927,4,24
-11.247959,-12.526464,3.246538,4,24
-8.264783999999999,-18.401834,-5.57849,4,24
-0.5841850000000001,-10.94629,-1.015141,4,24
-2.944868,-3.763685,0.8475469999999999,4,24
-1.675941,-9.136273,-2.839523,4,24
-3.773262,-4.094085,-0.531513,4,24
-6.17704,-7.345411,0.363919,4,24
-10.611102,-14.12579,5.161899,4,24
-5.889736,-11.75553,1.244985,4,24
0.871489,-11.597513,-1.5610190000000002,4,24
-3.3758239999999997,-2.451662,0.790087,4,24
-5.755661,-7.790732000000001,-0.593762,4,24
-13.445837,-14.240712,6.761226,4,24
-10.19451,-20.590134,-14.705187,4,24
-10.788273,-14.092270999999998,5.070919,4,24
-2.351106,-7.972691,-2.762909,4,24
0.866701,-11.913548,-3.356671,4,24
-2.983175,-3.859453,0.177171,4,24
-4.6208089999999995,-7.905653999999999,-0.009577,4,24
-9.562442,-11.750742,0.071826,4,24
5.750873,9.270349,22.821531,4,24
-2.1883,-4.855441000000001,1.604115,4,25
2.379837,-7.905653999999999,-1.01993,4,25
0.158017,-3.758896,1.9919759999999995,4,25
-3.490746,-9.471462,-1.197101,4,25
-2.365471,-16.371551999999998,-0.972046,4,25
-4.659116,5.78918,24.344242,4,25
0.038307,-12.023681,-1.13964,4,25
-0.866701,-7.551311999999999,-10.0748,4,25
-1.388637,-7.905653999999999,-0.416591,4,25
3.825935,-6.833050999999999,-0.114922,4,25
-0.871489,-7.0581059999999995,-2.27928,4,25
4.0270470000000005,-7.766789999999999,0.143652,4,25
5.736508000000001,-12.440272,-3.1076740000000003,4,25
-2.533065,-13.962984,-3.323152,4,25
-1.331176,-10.591949,-6.598419,4,25
4.094085,-10.400413,-2.389413,4,25
-1.446098,-3.438074,2.628834,4,25
0.713472,-8.39886,-1.312023,4,25
-0.0239419999999999,-2.949656,2.782062,4,25
-3.203442,-9.615114,-2.475604,4,25
-3.782838,-15.974113,-2.633622,4,25
-15.112201,-2.0302830000000003,-25.94357,4,25
-0.967257,-13.326127,-1.771709,4,25
-4.563348,-10.649409,-10.122684,4,25
-0.430956,-7.800309,1.355118,4,25
0.78051,-3.20823,1.881843,4,25
0.0909799999999999,-7.709328999999999,1.939303,4,25
3.687071,-6.339846,1.4987700000000002,4,25
1.781286,-9.165004,-0.574608,4,25
-6.9096660000000005,-15.763424,2.0254950000000003,4,25
1.187524,-15.638926,-3.145981,4,26
1.407791,-10.31901,1.891419,4,26
-2.767697,-15.911864,6.272809,4,26
2.226608,-30.717607,15.907076000000002,4,26
3.763685,-13.570335,-0.493206,4,26
-10.261548,-27.064056,-23.171083,4,26
-3.3997660000000005,-5.147533,-2.987964,4,26
-0.2585739999999999,-4.91769,4.161122,4,26
0.612916,-13.254301000000002,-4.912902,4,26
-1.905785,-3.797204,3.845088,4,26
1.723825,-6.938396000000001,-0.02873,4,26
-9.562442,-23.444023,-1.053449,4,26
-7.599196000000001,6.143522,-3.3614589999999995,4,26
7.479486,-14.829685,-2.384625,4,26
4.505888,-16.874334,-10.941502,4,26
-0.335188,-8.719683,-0.272939,4,26
-2.954445,-2.681506,3.323152,4,26
0.057461,-8.968679,0.943315,4,26
-1.383848,-3.519476,4.462791999999999,4,26
2.786851,-10.237606,-9.380483,4,26
-7.575253999999999,-19.34515,-1.728614,4,26
-5.3725879999999995,5.985504,-10.060435,4,26
1.80044,-14.015656,-3.744531,4,26
-6.924030999999999,-8.5473,-8.025364,4,26
-0.234632,-12.119449,-2.930503,4,26
-4.127603,-11.324574,-9.524135,4,26
1.091756,-10.577583,5.621586,4,26
-4.515464,-0.325611,3.806781,4,26
-1.939303,-6.823475,-4.127603,4,26
0.646435,-9.902418,-0.7038949999999999,4,26
1.733402,-4.012682,1.762132,4,27
2.75812,-8.27436,0.7038949999999999,4,27
-3.960008999999999,-13.809755,-1.312023,4,27
0.416591,-10.500969,-6.8426279999999995,4,27
4.563349,-10.342952,-4.716577,4,27
-1.862689,-3.141193,2.011129,4,27
1.733402,-10.491392,-1.211466,4,27
-0.411803,-3.1986529999999997,2.059013,4,27
-5.391742,-8.853758000000001,-0.3926489999999999,4,27
-5.674258,-16.4338,1.661576,4,27
1.072602,-20.84871,0.234632,4,27
2.284068,-11.271901,-0.742202,4,27
-2.1883,-4.855441000000001,1.604115,4,27
2.379837,-7.905653999999999,-1.01993,4,27
0.158017,-3.758896,1.9919759999999995,4,27
-3.490746,-9.471462,-1.197101,4,27
-2.365471,-16.371551999999998,-0.972046,4,27
-4.659116,5.78918,24.344242,4,27
0.038307,-12.023681,-1.13964,4,27
-0.866701,-7.551311999999999,-10.0748,4,27
-1.388637,-7.905653999999999,-0.416591,4,27
3.825935,-6.833050999999999,-0.114922,4,27
-0.871489,-7.0581059999999995,-2.27928,4,27
4.0270470000000005,-7.766789999999999,0.143652,4,27
5.736508000000001,-12.440272,-3.1076740000000003,4,27
-2.533065,-13.962984,-3.323152,4,27
-1.331176,-10.591949,-6.598419,4,27
4.094085,-10.400413,-2.389413,4,27
-1.446098,-3.438074,2.628834,4,27
0.713472,-8.39886,-1.312023,4,27
-3.821146,-8.973467999999999,-1.465251,4,28
-3.112462,-3.3614589999999995,2.092532,4,28
-3.667917,-7.460332000000001,-0.6272810000000001,4,28
-4.43885,-12.406754,-1.742979,4,28
-1.790863,0.416591,20.944477,4,28
-0.512359,-9.404425,-2.097321,4,28
-4.309563,-23.376986,-9.457097,4,28
-2.212242,-14.690822,-4.0270470000000005,4,28
-0.435745,-7.230489,-4.572925,4,28
0.775721,-10.97502,-1.781286,4,28
-3.0693669999999997,-2.418144,1.192313,4,28
-1.072602,-8.288725999999999,-1.106121,4,28
-0.8762780000000001,-10.448297,-2.044648,4,28
-3.260903,-15.073894,5.382166000000001,4,28
-1.465251,-12.741941,-2.853888,4,28
-1.106121,-8.858546,-6.445191,4,28
-0.742202,-15.524004,-3.77805,4,28
1.010353,-14.911088,-8.317456,4,28
-1.9919759999999995,-9.342175,-2.7437549999999997,4,28
-2.2601259999999996,-2.796427,0.426168,4,28
-6.028599,-6.947972999999999,-1.268927,4,28
-11.247959,-12.526464,3.246538,4,28
-8.264783999999999,-18.401834,-5.57849,4,28
-0.5841850000000001,-10.94629,-1.015141,4,28
-2.944868,-3.763685,0.8475469999999999,4,28
-1.675941,-9.136273,-2.839523,4,28
-3.773262,-4.094085,-0.531513,4,28
-6.17704,-7.345411,0.363919,4,28
-10.611102,-14.12579,5.161899,4,28
-5.889736,-11.75553,1.244985,4,28
1.857901,-13.474567,-0.148441,4,29
-2.169147,1.278504,2.293645,4,29
-3.916914,-6.244078,0.052672,4,29
-1.4987700000000002,-9.591172,0.675165,4,29
-2.930503,-13.273454999999998,22.902932999999997,4,29
-4.1419690000000005,-9.92636,-1.197101,4,29
-6.7851669999999995,-18.229452,-10.601525,4,29
-1.929727,-14.767435999999998,-3.476381,4,29
-0.54109,-4.477157,-6.981492,4,29
0.507571,-12.593501,-1.374272,4,29
-4.711789,-1.977611,2.470816,4,29
-1.244985,-7.383717999999999,-0.158017,4,29
-2.1739349999999997,-10.783484,-0.014365,4,29
-2.336741,-7.465121000000001,-0.531513,4,29
-3.701436,-10.309433,-0.1819589999999999,4,29
-4.185065,-19.804836,-7.910442,4,29
0.306458,-14.135366,-4.501099,4,29
-3.960008999999999,-14.748282,-15.184027,4,29
-5.655104,-7.800309,-2.72939,4,29
-2.394202,0.009577,2.892196,4,29
-6.483498,-7.374141000000001,0.110133,4,29
-10.596737,-13.484144,-1.182736,4,29
-12.157756,4.903325,-5.90889,4,29
-12.162544,-14.121001,0.871489,4,29
-13.723564,-26.187778,-15.049952,4,29
-3.126827,-11.382035,-1.613692,4,29
-3.035848,-6.550535,-5.377377,4,29
-1.2162540000000002,-8.125919999999999,1.565808,4,29
1.010353,-7.225700999999999,2.542642,4,29
-6.598419,-6.210559,0.8236049999999999,4,29
-2.5378540000000003,-1.096544,0.713472,4,30
-3.529053,-9.41879,-0.694318,4,30
-13.651738,-13.321339000000002,2.39899,4,30
-11.137826,-13.158532,-12.105083,4,30
-5.420472,-10.544065,-5.181051999999999,4,30
-3.169923,-0.234632,3.452439,4,30
-4.654328,-8.350976,-0.962469,4,30
-14.748282,-12.77546,1.474828,4,30
2.978387,9.92636,15.102624,4,30
-8.231264999999999,-10.371682,-2.978387,4,30
-3.845088,-3.4955339999999997,-7.302314999999999,4,30
-4.601655,-7.675811,-0.68953,4,30
-4.218583,-3.519476,-0.976834,4,30
-5.195418,-8.882488,0.622492,4,30
-7.441178999999999,-12.11466,-3.950433,4,30
-4.903325,-5.51624,-7.489063000000001,4,30
-3.892972,-7.388506,2.375048,4,30
-2.992752,-3.323152,-0.967257,4,30
-7.393294999999999,-5.315128,-1.221043,4,30
-0.416591,-10.232818,-2.106897,4,30
-3.691859,-8.240842,1.053449,4,30
-3.835511,-14.800954999999998,-2.379836,4,30
-4.333505000000001,-8.935161,-12.41633,4,30
-4.3239279999999995,-8.571242,0.354342,4,30
-2.164358,-4.10845,-0.7852979999999999,4,30
-5.66947,-6.646304,-1.714248,4,30
-8.657434,-9.002198,-3.2561139999999997,4,30
-0.426168,-5.161899,-5.061342,4,30
-5.080496,-7.867347,0.746991,4,30
-3.29921,-3.3758239999999997,1.953669,4,30
-5.080496,-7.867347,0.746991,4,31
-3.29921,-3.3758239999999997,1.953669,4,31
-4.2904089999999995,-9.121908,-2.552219,4,31
-3.720589,-3.2896330000000003,-1.077391,4,31
-6.919242999999999,-7.129933,1.221043,4,31
-8.643068,-9.006986999999999,1.623269,4,31
-17.439365,-13.426683,-21.1408,4,31
-1.7094599999999998,-11.496957,-1.23062,4,31
-0.253785,-2.365471,1.278504,4,31
-3.691859,-7.723694999999999,-0.459687,4,31
-10.668563,-11.228806,-1.7860740000000002,4,31
-6.813898,-8.269572,-2.365471,4,31
-7.838616,-9.011775,-3.648763,4,31
-1.479617,-6.071695,-9.390059,4,31
-2.619257,-8.767567,-2.2505490000000004,4,31
-2.4660279999999997,-3.155558,0.545878,4,31
-7.64708,-6.655881,-0.770933,4,31
-7.790732000000001,-11.257536,-4.529829,4,31
-0.78051,-6.009446,-11.377247,4,31
-2.853888,-10.860099,-5.137956,4,31
-5.061342,-7.967903,-8.298302,4,31
-3.639186,-8.030152000000001,1.450886,4,31
-3.691859,-5.094861,-1.80044,4,31
-6.258443,-8.585608,-1.000776,4,31
-6.426037,-13.819332,-3.371036,4,31
-3.567361,-5.233725,-7.666233999999999,4,31
-7.201759,-7.479486,-2.197877,4,31
-2.753332,-4.486733999999999,0.167594,4,31
-4.3478699999999995,-10.170568,1.733402,4,31
-6.229712999999999,-9.380483,-2.255338,4,31
-2.1739349999999997,-10.783484,-0.014365,4,32
-2.336741,-7.465121000000001,-0.531513,4,32
-3.701436,-10.309433,-0.1819589999999999,4,32
-4.185065,-19.804836,-7.910442,4,32
0.306458,-14.135366,-4.501099,4,32
-3.960008999999999,-14.748282,-15.184027,4,32
-5.655104,-7.800309,-2.72939,4,32
-2.394202,0.009577,2.892196,4,32
-6.483498,-7.374141000000001,0.110133,4,32
-10.596737,-13.484144,-1.182736,4,32
-12.157756,4.903325,-5.90889,4,32
-12.162544,-14.121001,0.871489,4,32
-13.723564,-26.187778,-15.049952,4,32
-3.126827,-11.382035,-1.613692,4,32
-3.035848,-6.550535,-5.377377,4,32
-1.2162540000000002,-8.125919999999999,1.565808,4,32
1.010353,-7.225700999999999,2.542642,4,32
-6.598419,-6.210559,0.8236049999999999,4,32
-13.532028,-14.571112,-0.555455,4,32
-2.652775,-1.608903,12.512098,4,32
-7.982268,-12.138602,-0.732626,4,32
0.512359,-8.437167,24.17186,4,32
-1.355118,-14.245501,-2.494758,4,32
-3.184288,-4.975151,-3.816357,4,32
-0.368707,-10.386047,-0.651223,4,32
-2.0781669999999997,-0.531513,2.39899,4,32
-4.941632,-7.551311999999999,-1.149217,4,32
-7.714117999999999,-11.654974,-0.742202,4,32
-4.975151,-21.538239,-7.354987,4,32
3.308787,-9.069236,0.1292869999999999,4,32
-3.05979,-9.074024,-1.235408,4,33
-1.364695,-4.170699,2.164359,4,33
-5.3390699999999995,-6.981492,2.3558950000000003,4,33
-4.352658,-14.42746,-2.5809490000000004,4,33
-10.836157,-15.80652,-6.885724000000001,4,33
-3.811569,-15.246277,-3.438074,4,33
-8.441956,-15.097836,-20.025103,4,33
-1.034295,-8.331821000000001,-1.063026,4,33
-10.46745,-15.68681,-15.251065,4,33
-3.624821,-7.158663000000001,-0.02873,4,33
-2.331952,-3.2321720000000003,1.766921,4,33
-6.29675,-7.594407,1.302446,4,33
-9.433155,-13.369223000000002,0.924162,4,33
10.457873,13.895947,27.241226,4,33
-2.916138,-12.330139,-1.173159,4,33
-4.802768,-9.979033,-9.634268,4,33
-0.143652,-13.512875,-0.732626,4,33
-3.323152,-6.933608,-8.307879,4,33
-0.924162,-8.820239,1.058237,4,33
1.292869,-8.207322999999999,1.192313,4,33
2.063802,-15.040375,-2.8682540000000003,4,33
-8.724471000000001,-11.195287,0.593762,4,33
-5.449203,-11.918336,-8.078036,4,33
0.42138,-12.196063,-3.825934,4,33
0.588974,-5.707777,-5.78918,4,33
-1.244985,-11.295844,-1.675941,4,33
-3.466804,-2.293645,2.375048,4,33
-4.726154,-7.982268,-1.47004,4,33
-6.5792660000000005,-12.334928,-1.843535,4,33
-5.161899,-3.586514,-3.3375169999999996,4,33
11.113884,-19.603724,-3.921702,4,34
5.1092260000000005,-15.452178,-1.47004,4,34
6.373365,-11.741165,-8.226476,4,34
3.2896330000000003,-9.993398,-0.3830719999999999,4,34
-2.978387,-3.0502130000000003,1.273715,4,34
-4.3478699999999995,-9.92636,-1.642422,4,34
-4.256891,-17.166426,-2.054225,4,34
-12.277467,6.435614,2.853889,4,34
-7.8865,-16.82645,4.912902,4,34
4.13718,-23.673866,-10.807426,4,34
2.523489,-10.070012,0.158017,4,34
-0.143652,-3.5721489999999996,1.862689,4,34
1.221043,-7.963114,-0.737414,4,34
6.105214,-8.504205,0.306458,4,34
-2.925714,-21.298819,5.612009,4,34
3.347094,-13.302185,-2.020706,4,34
-4.170699,-15.801731,0.162806,4,34
1.173159,-14.092270999999998,-0.636858,4,34
1.11091,-8.954314,-8.887277000000001,4,34
0.0478839999999999,-8.571242,0.790087,4,34
2.494758,-5.674258,1.034295,4,34
11.894394,-11.429919,-8.049306,4,34
-9.323022,-15.844827,1.824382,4,34
-1.278504,-17.334020000000002,-14.245501,4,34
5.042189,-14.518439,-5.63595,4,34
-0.474052,-10.237606,-9.222465,4,34
2.873042,-10.261548,0.4979939999999999,4,34
-2.911349,-3.782838,1.13964,4,34
-3.624821,-8.939949,-1.508347,4,34
-6.631939,-14.073117000000002,-0.4548979999999999,4,34
4.850653,-16.845604,-6.435614,4,35
-0.7852979999999999,-9.227253,-10.625467,4,35
-1.043872,-14.264654,-3.600879,4,35
2.94008,3.691859,20.398598,4,35
4.721366000000001,-14.528016,-4.256891,4,35
-0.6464340000000001,-7.177817,-3.667917,4,35
5.511451999999999,-11.611878,-7.335833999999999,4,35
-1.527501,-1.125275,4.276045,4,35
2.011129,-8.504205,1.982399,4,35
2.351106,-3.964798000000001,4.036624,4,35
-0.205901,-6.119579,0.814029,4,35
-3.830723,-0.924162,5.12838,4,35
0.019154,-5.233725,-2.7198130000000003,4,35
5.4970870000000005,-6.358999,2.149993,4,35
7.182606,-22.596476000000003,1.2545620000000002,4,35
-6.05733,-16.529567999999998,2.7437549999999997,4,35
-4.462791999999999,11.176133,14.00608,4,35
1.393425,-13.579912,-4.328717,4,35
-1.441309,-8.815451,-2.834735,4,35
-6.349423000000001,-15.978902,5.4396260000000005,4,35
-4.180276,1.776498,1.345541,4,35
-1.072602,-11.793838,-10.414778,4,35
0.905008,-1.101333,-1.264138,4,35
5.0086699999999995,-13.239935999999998,3.452439,4,35
-1.163582,-10.065224,-7.364564,4,35
-0.483629,-6.933608,0.8044520000000001,4,35
-6.378153,-2.5809490000000004,3.912126,4,35
-0.167594,-10.390836,-2.020706,4,35
0.1915359999999999,0.651223,6.042965000000001,4,35
2.226608,-6.837839999999999,0.3304,4,35
1.666364,-16.141707999999998,-4.7453080000000005,4,36
-1.7860740000000002,-10.13705,-5.477933,4,36
4.721366000000001,-13.570335,1.240197,4,36
-1.005565,-2.700659,-0.545878,4,36
3.835511,-13.172897,2.097321,4,36
-3.945644,-17.257406,-20.973207,4,36
-0.344765,-9.083601,1.297657,4,36
-2.494758,-1.872266,3.758897,4,36
0.790087,-6.272808,-5.243302,4,36
-2.145205,-11.501745,1.197101,4,36
-1.503559,-9.600749,7.819463000000001,4,36
0.952892,-14.599842,-5.228936,4,36
-5.985504,-15.17445,4.333505000000001,4,36
-7.244853999999999,-18.823214,4.841076,4,36
-0.464475,-9.332599,21.62922,4,36
3.758897,-14.642938,-5.315128,4,36
-0.0478839999999999,-22.888569,-16.845604,4,36
-1.656788,-11.520899,-2.317587,4,36
-1.771709,-0.5171479999999999,3.816358,4,36
2.30801,-6.684611,-0.545878,4,36
4.491523,-4.256891,5.621586,4,36
-2.418144,-7.766789999999999,2.413355,4,36
-3.5625720000000003,-1.264138,5.046977,4,36
2.0494369999999997,-5.60722,-0.751779,4,36
8.37013,-6.794744000000001,-0.306458,4,36
14.714764,-30.085539,-5.980716,4,36
-2.695871,-15.361198000000002,8.753200999999999,4,36
-6.38773,8.221689,8.834603999999999,4,36
4.850653,-16.845604,-6.435614,4,36
-0.7852979999999999,-9.227253,-10.625467,4,36
-3.701436,-2.585738,-5.104438,4,37
2.5378540000000003,-13.182474,-5.3725879999999995,4,37
-3.2800559999999996,-5.8274870000000005,-4.6208089999999995,4,37
2.667141,-12.737153,-1.25935,4,37
-1.8579,-1.9919759999999995,1.671153,4,37
-2.255338,-6.435614,-1.556231,4,37
3.854665,-11.310209,0.287304,4,37
-7.747636999999999,-22.495918,-1.972822,4,37
-5.238512999999999,-15.308526,-0.1292869999999999,4,37
-0.134075,-2.978387,-5.688623000000001,4,37
-7.943961,-14.729129,2.044648,4,37
-5.0374,-14.580688,-8.48984,4,37
2.896984,-13.575124,1.288081,4,37
-2.37026,-2.624045,2.513912,4,37
-1.891419,-8.259995,-0.957681,4,37
3.0693669999999997,-10.0748,-0.3304,4,37
-6.607996000000001,-26.824636,-7.929596000000001,4,37
-1.5466540000000002,-14.676456,-3.5386300000000004,4,37
-3.093309,-19.124884,4.869807,4,37
-5.300762000000001,-11.836933,-2.389413,4,37
1.3982139999999998,-5.281609,-4.908113,4,37
2.116475,-11.980585,-5.214571,4,37
-1.388637,-2.264915,2.748544,4,37
-4.6208089999999995,-6.244078,-2.1547810000000003,4,37
-5.7029879999999995,-11.592725,-2.102109,4,37
-6.722917999999999,5.415684,1.695095,4,37
-3.682282,-13.603854,-2.317587,4,37
-8.63828,4.022259,3.586514,4,37
-4.118027,-14.216769,-3.605668,4,37
-10.275913,-10.769119,-14.432248,4,37
-0.02873,-5.425261,0.8236049999999999,4,38
3.4189199999999995,-6.675033999999999,1.158794,4,38
1.891419,-11.669339,-1.570596,4,38
-1.647211,-5.305551,9.169792,4,38
3.399767,-15.586253,-0.8044520000000001,4,38
4.572925,0.1819589999999999,32.59945,4,38
5.60722,-13.005303,-0.378284,4,38
3.672706,-10.874464,-7.0581059999999995,4,38
1.939303,-9.097966,-2.782062,4,38
-0.344765,-4.161122,1.23062,4,38
-0.387861,-9.174581,3.031059,4,38
-7.359775999999999,-15.322891,0.8523360000000001,4,38
11.113884,-19.603724,-3.921702,4,38
5.1092260000000005,-15.452178,-1.47004,4,38
6.373365,-11.741165,-8.226476,4,38
3.2896330000000003,-9.993398,-0.3830719999999999,4,38
-2.978387,-3.0502130000000003,1.273715,4,38
-4.3478699999999995,-9.92636,-1.642422,4,38
-4.256891,-17.166426,-2.054225,4,38
-12.277467,6.435614,2.853889,4,38
-7.8865,-16.82645,4.912902,4,38
4.13718,-23.673866,-10.807426,4,38
2.523489,-10.070012,0.158017,4,38
-0.143652,-3.5721489999999996,1.862689,4,38
1.221043,-7.963114,-0.737414,4,38
6.105214,-8.504205,0.306458,4,38
-2.925714,-21.298819,5.612009,4,38
3.347094,-13.302185,-2.020706,4,38
-4.170699,-15.801731,0.162806,4,38
1.173159,-14.092270999999998,-0.636858,4,38
0.905008,-1.101333,-1.264138,4,39
5.0086699999999995,-13.239935999999998,3.452439,4,39
-1.163582,-10.065224,-7.364564,4,39
-0.483629,-6.933608,0.8044520000000001,4,39
-6.378153,-2.5809490000000004,3.912126,4,39
-0.167594,-10.390836,-2.020706,4,39
0.1915359999999999,0.651223,6.042965000000001,4,39
2.226608,-6.837839999999999,0.3304,4,39
3.05979,-8.183380999999999,0.665588,4,39
4.572925,-12.401965,-4.783615,4,39
-8.063671000000001,-21.222204,-4.6878470000000005,4,39
-14.805743,12.124237,-10.888829,4,39
8.968679,-15.370775,-3.4811690000000004,4,39
-0.675165,-14.245501,23.769634,4,39
6.359,-15.466543,-4.764461,4,39
-3.964798000000001,-5.583278,-2.863465,4,39
1.082179,-12.138602,-2.624045,4,39
-3.715801,-0.790087,3.979163,4,39
-0.234632,-6.339846,0.483629,4,39
9.370906,-7.402871,0.411803,4,39
8.379707000000002,-19.718645,1.819593,4,39
0.684742,-3.3375169999999996,4.759673,4,39
5.032612,-9.945514,-7.61835,4,39
-3.801992,-16.069881,-0.7852979999999999,4,39
1.403002,-7.718906,11.190498,4,39
7.034165,-14.686032999999998,-4.721366000000001,4,39
-3.691859,-8.561666,-5.12838,4,39
0.8762780000000001,-11.295844,-3.926491,4,39
-1.570596,-1.551443,5.12838,4,39
3.624822,-10.951078,-6.708553,4,39
1.896208,-4.367024,22.835896,4,40
-4.7788260000000005,-15.102624,-3.3854010000000003,4,40
-1.154005,-3.227384,-2.63841,4,40
0.579397,-12.50731,-1.446098,4,40
-2.475604,-0.636858,1.6998830000000005,4,40
-1.47004,-8.264783999999999,1.695095,4,40
-1.996764,-1.628057,3.198654,4,40
-5.482722,-7.934384,-0.052672,4,40
-9.188946,-13.024457,-1.881842,4,40
-9.380483,-0.407014,-17.00841,4,40
-1.010353,-13.809755,-3.926491,4,40
-2.935291,-13.589489000000002,-14.255076999999998,4,40
-1.23062,-14.681245,-3.045424,4,40
-5.214571,-10.342952,-7.52737,4,40
-5.0086699999999995,-7.972691,-2.097321,4,40
-2.75812,-1.805228,1.23062,4,40
-2.236184,-9.749189,-1.719037,4,40
-2.5809490000000004,-9.983821,-1.929727,4,40
-3.730166000000001,-14.508862,8.355765,4,40
-2.566584,-12.583924,-5.583278,4,40
3.174712,-4.903325,-1.388637,4,40
-9.892841,-10.91756,1.015142,4,40
6.737284,-12.650962,4.165911,4,40
0.483629,-15.863979999999998,-2.810793,4,40
-2.576161,-14.283808,-7.249642999999999,4,40
-1.944092,-9.232041,-0.11971,4,40
-0.6608,-2.715025,-2.15957,4,40
-0.555455,-8.178592,-0.641646,4,40
-4.754884,-11.453861,-0.6464340000000001,4,40
-6.047753,-7.402871,10.022128,4,40
0.622492,-6.924030999999999,1.058237,4,41
-0.416591,-11.080365,-2.097321,4,41
-5.525817,-12.612655,-3.0502130000000003,4,41
0.914585,-5.980716,-4.649539,4,41
-0.143652,-9.270349,0.167594,4,41
-0.679953,-3.007117,1.953669,4,41
-4.817133999999999,-8.561666,0.684742,4,41
-9.002198,-11.664551,2.470816,4,41
-1.11091,-17.195156,-3.351882,4,41
-0.3734949999999999,-16.405070000000002,-3.4572269999999996,4,41
-5.559336,-11.219229,-9.80665,4,41
-1.996764,-8.082824,1.963245,4,41
-1.01993,-3.763685,2.4660279999999997,4,41
-3.332729,-9.524135,-0.134075,4,41
-9.409213,-14.116213,4.127604,4,41
-1.47004,-14.149732,-6.397307,4,41
-8.681376,-13.848063,1.4987700000000002,4,41
-3.912125,-11.013328,-8.748413000000001,4,41
1.043872,-11.48738,-5.913678,4,41
-1.570596,-1.7573439999999998,1.714248,4,41
-4.3766,-6.679823,-1.206678,4,41
-0.7852979999999999,-11.161768,-1.455675,4,41
-8.911219000000001,-11.597513,30.286652,4,41
0.59855,-15.586253,-1.924938,4,41
-11.894394,1.580173,-9.227253,4,41
-4.491522,-13.263878,-2.365471,4,41
-9.069236,-9.787497,-11.022904,4,41
-2.96881,-7.723694999999999,-1.034295,4,41
1.316811,-10.740389,-1.163582,4,41
-5.27682,-26.068068,-2.298433,4,41
-1.01993,-3.763685,2.4660279999999997,4,42
-3.332729,-9.524135,-0.134075,4,42
-9.409213,-14.116213,4.127604,4,42
-1.47004,-14.149732,-6.397307,4,42
-8.681376,-13.848063,1.4987700000000002,4,42
-3.912125,-11.013328,-8.748413000000001,4,42
1.043872,-11.48738,-5.913678,4,42
-1.570596,-1.7573439999999998,1.714248,4,42
-4.3766,-6.679823,-1.206678,4,42
-0.7852979999999999,-11.161768,-1.455675,4,42
-8.911219000000001,-11.597513,30.286652,4,42
0.59855,-15.586253,-1.924938,4,42
-11.894394,1.580173,-9.227253,4,42
-4.491522,-13.263878,-2.365471,4,42
-9.069236,-9.787497,-11.022904,4,42
-2.96881,-7.723694999999999,-1.034295,4,42
1.316811,-10.740389,-1.163582,4,42
-5.27682,-26.068068,-2.298433,4,42
-1.278504,-13.565547,-5.190629,4,42
-8.542512,-13.608643,-13.757082999999998,4,42
-4.3239279999999995,-12.828133,-3.816357,4,42
-12.488156,-11.683704,-12.464214,4,42
-3.620033,-8.068458999999999,-1.192312,4,42
1.551443,-8.418014,0.7230489999999999,4,42
-4.707,-16.630125,16.366761999999998,4,42
-0.588974,-15.102624,-3.931279,4,42
-6.569689,-13.445837,-8.944737,4,42
-4.175488,-8.178592,-0.737414,4,42
-1.541866,-3.131616,2.1787240000000003,4,42
-2.442086,-8.734048,1.288081,4,42
-1.647211,-6.952761,-0.732626,4,43
-1.25935,-8.125919999999999,0.0957679999999999,4,43
0.445322,-7.924807,1.7525560000000002,4,43
-8.101977999999999,-12.152967,-0.526724,4,43
4.869807,-7.402871,17.913418,4,43
-3.193865,-10.67814,-1.891419,4,43
-8.614338,-26.197355,-5.401319,4,43
-9.581595,-14.542381,6.833052,4,43
-20.676327,-24.808718,-21.265299,4,43
-0.4979939999999999,-12.86644,-1.810016,4,43
-15.251065,-14.135366,-17.06108,4,43
-5.190629,-9.246407,-3.490746,4,43
-1.1300629999999998,-1.719037,3.4332849999999997,4,43
0.086191,-11.161768,-1.393425,4,43
-1.412579,1.249773,5.224149,4,43
-3.3039980000000004,-5.904101,1.264139,4,43
-1.532289,-10.103531,-2.351106,4,43
-9.107543,-26.479871999999997,-7.958326,4,43
-11.046846,-13.594276999999998,4.563349,4,43
-9.998186,-15.322891,-13.986926,4,43
-0.957681,-12.804191,0.8906430000000001,4,43
-2.1739349999999997,-6.004657,-7.61835,4,43
-0.21069,-14.853627,-3.643975,4,43
-13.737929,-13.235147,-12.253524,4,43
-5.185841,-7.445967,-4.486733999999999,4,43
-1.182736,0.301669,3.05979,4,43
-4.007893,-6.392518,-2.015918,4,43
1.838747,-9.916783,0.866701,4,43
0.80924,-12.310986,1.742979,4,43
-13.536817,-15.878345,4.462791999999999,4,43
-2.60968,-12.53604,-6.62715,4,44
-1.6519990000000002,-10.093954,0.426168,4,44
-3.682282,-2.106897,4.845865,4,44
-1.173159,-5.688623000000001,-1.264138,4,44
7.1395100000000005,-7.077260000000001,1.383849,4,44
7.671023,-13.326127,-9.093178,4,44
-6.430825,-18.890251,-0.54109,4,44
-0.272939,-4.261679,12.401965,4,44
1.3982139999999998,-8.044516999999999,-0.684742,4,44
-2.499546,-15.500062,3.936068,4,44
-4.903325,-14.408306,3.428497,4,44
-2.959233,-27.983427,-3.557784,4,44
5.995081,-12.057199,6.636728,4,44
-4.592078,-23.300371,-25.292345,4,44
0.512359,-7.474697,1.872266,4,44
-2.973598,-1.240196,3.86903,4,44
-3.682282,-5.755661,-2.82037,4,44
-2.37026,-1.063026,4.017469999999999,4,44
2.293645,-7.249642999999999,0.6272810000000001,4,44
9.32781,-7.225700999999999,-0.421379,4,44
8.686164,-22.37621,2.8682540000000003,4,44
-6.358999,-17.0946,2.0781669999999997,4,44
-11.798626,11.382035,-2.734178,4,44
5.267244,-14.360422,-4.328717,4,44
4.146757,-13.52724,-4.630386,4,44
5.746084,-12.674904,-15.006856,4,44
-4.453215,-19.40261,-8.839393,4,44
7.326257000000001,-12.751518,6.66067,4,44
-0.842759,-12.368446,-15.275007,4,44
-0.656011,-7.493850999999999,-0.378284,4,44
-4.635174,-11.932701,-2.284068,4,45
-13.22557,-26.307487,-17.353174,4,45
-1.58975,-11.013328,-0.296881,4,45
4.486733999999999,-0.732626,-6.885724000000001,4,45
0.177171,-11.190498,-1.80044,4,45
-2.633622,-1.838747,1.891419,4,45
-3.739743,-6.837839999999999,0.90022,4,45
-3.677494,-8.614338,-1.608903,4,45
-1.843535,-14.216769,2.389413,4,45
-15.179238,-13.819332,2.9257150000000003,4,45
-13.326127,-19.958067,-7.747636999999999,4,45
-14.025232999999998,-14.968549,1.4987700000000002,4,45
2.269703,-14.700398000000002,37.737408,4,45
-2.470816,-13.153744,-3.055001,4,45
-9.5385,-10.524911,-13.895947,4,45
-1.067814,-7.350199000000001,0.325611,4,45
-1.690306,-3.3997660000000005,2.705448,4,45
-7.019799000000001,-5.66947,0.057461,4,45
-10.237606,-13.086706,-1.000776,4,45
-5.621585,-12.339716,35.30969,4,45
-11.674128,-12.943054,5.712566000000001,4,45
3.414132,-21.930887,0.6991069999999999,4,45
-9.433155,-11.63582,-0.919373,4,45
-9.528923,6.7277070000000005,-13.781025,4,45
-3.3039980000000004,-12.703634,-4.189853,4,45
-11.09473,-15.543157999999998,-12.033257,4,45
-2.288857,-10.13705,-3.792415,4,45
-2.858677,-0.732626,3.20823,4,45
-5.583278,-5.631162000000001,-1.005565,4,45
-1.814805,-10.764331,-2.0302830000000003,4,45
2.269703,-14.700398000000002,37.737408,4,46
-2.470816,-13.153744,-3.055001,4,46
-9.5385,-10.524911,-13.895947,4,46
-1.067814,-7.350199000000001,0.325611,4,46
-1.690306,-3.3997660000000005,2.705448,4,46
-7.019799000000001,-5.66947,0.057461,4,46
-10.237606,-13.086706,-1.000776,4,46
-5.621585,-12.339716,35.30969,4,46
-11.674128,-12.943054,5.712566000000001,4,46
3.414132,-21.930887,0.6991069999999999,4,46
-9.433155,-11.63582,-0.919373,4,46
-9.528923,6.7277070000000005,-13.781025,4,46
-3.3039980000000004,-12.703634,-4.189853,4,46
-11.09473,-15.543157999999998,-12.033257,4,46
-2.288857,-10.13705,-3.792415,4,46
-2.858677,-0.732626,3.20823,4,46
-5.583278,-5.631162000000001,-1.005565,4,46
-1.814805,-10.764331,-2.0302830000000003,4,46
-3.055001,-6.991069,-1.594538,4,46
2.044648,-9.730036,-0.1292869999999999,4,46
-8.475474,-23.769634,-6.938396000000001,4,46
-4.979939,-14.45619,2.207454,4,46
-20.748151999999997,-22.826319,-14.556746,4,46
-4.520251999999999,-12.258312,-3.007117,4,46
-5.865794,-11.506534,-9.821015,4,46
-4.9512089999999995,-7.762002000000001,-2.6862939999999997,4,46
-2.264915,-1.742979,3.916914,4,46
-2.628833,-9.945514,-2.762909,4,46
-2.006341,-1.264138,4.055778,4,46
-3.160346,-6.378153,0.474052,4,46
0.80924,-12.310986,1.742979,4,47
-13.536817,-15.878345,4.462791999999999,4,47
9.701305,-3.0502130000000003,33.92105,4,47
-5.114014,-12.966996,-6.29675,4,47
-9.868899,-17.027563,-18.727446,4,47
-11.051635,-9.974244,-2.011129,4,47
-3.040636,-3.409343,-5.324704,4,47
-1.082179,-13.967772,-1.915361,4,47
-3.715801,-1.891419,2.633622,4,47
-2.389413,-5.956774,1.4987700000000002,4,47
0.234632,-1.685518,4.544194999999999,4,47
-3.797204,-7.757213,1.833959,4,47
-11.48738,-12.923901,-0.177171,4,47
-6.62715,-5.463568,-1.35033,4,47
2.542642,-11.300632,-1.5610190000000002,4,47
-3.112462,-17.587805,-3.773262,4,47
-12.445061,-15.073894,4.146757,4,47
-18.555063,-19.756952,-15.753847,4,47
-1.307234,-12.291832,-2.873042,4,47
-2.882619,-6.253655,-12.090718,4,47
-2.715025,-5.880159,1.058237,4,47
-1.2162540000000002,-1.005565,3.835511,4,47
0.004788,-11.257536,-2.102109,4,47
-2.284068,-0.397437,3.5960910000000004,4,47
-1.101333,-7.642291999999999,1.977611,4,47
1.273715,-7.105989999999999,2.145205,4,47
-5.918466,-5.559336,0.440533,4,47
-10.462662,-12.550406,-0.550666,4,47
-2.619257,-15.021221,18.784906,4,47
-5.228936,-13.115437,2.193089,4,47
1.154005,-14.384364,-6.890511999999999,4,48
0.153229,-10.960655,-0.3926489999999999,4,48
-3.471592,-1.04866,4.41012,4,48
-2.011129,-6.153098,-1.915361,4,48
0.162806,-8.892064999999999,2.135628,4,48
3.4237089999999997,-23.482329999999997,5.722142,4,48
-1.446098,-12.703634,6.742072,4,48
7.805097999999999,-19.79526,2.542642,4,48
-6.971914999999999,-18.368315,0.263362,4,48
-4.429273,-12.35887,15.05474,4,48
-0.7852979999999999,-14.221559,-7.225700999999999,4,48
-2.5617959999999997,-22.61563,-20.87744,4,48
-0.952892,-12.976573,-2.681506,4,48
-4.074930999999999,-0.713472,4.908114,4,48
-0.909797,-7.010222,-2.5905259999999997,4,48
-0.459687,-0.675165,3.744532,4,48
0.957681,-6.679823,-1.82917,4,48
3.682282,-5.12838,1.73819,4,48
8.221689,-12.555194,-8.662222,4,48
-8.269572,-20.044256,-1.426944,4,48
-10.453085,8.954314,-7.852981,4,48
8.279149,-14.623784,-3.840299,4,48
-1.479617,-8.839393,-4.936844000000001,4,48
4.826711,-15.193604,-4.544194,4,48
0.641646,0.0909799999999999,-7.920019,4,48
5.899312999999999,-11.674128,-1.47004,4,48
2.27928,-5.410896,-11.444284,4,48
2.767697,-8.350976,2.331953,4,48
2.829947,-3.921702,4.256891,4,48
4.97994,-10.726024,-10.496181,4,48
-2.748543,-9.835381,-2.523488,4,49
-1.455675,-3.98874,2.504335,4,49
-6.200982,-7.206547,1.44131,4,49
-8.025364,-10.175357,2.5953150000000003,4,49
-2.8491,-15.318103,-1.934515,4,49
-1.58975,-14.96376,-4.094085,4,49
-6.009446,-10.371682,-7.211335000000001,4,49
-2.944868,-7.920019,0.656011,4,49
-2.4851810000000003,-2.0494369999999997,2.140417,4,49
-3.864241,-7.594407,1.25935,4,49
-6.823475,-11.841722,-2.384625,4,49
0.665588,-5.7700260000000005,-4.520251999999999,4,49
-4.419696,-11.314998,0.483629,4,49
-2.748543,-6.306327,-5.286397,4,49
-2.705448,-7.091625,-0.325611,4,49
-7.484274,-11.03727,-2.394202,4,49
-10.376471,-13.910312,-10.429143,4,49
-0.756568,-10.146626,-2.317587,4,49
-1.345541,-1.714248,2.734178,4,49
-2.183512,-7.690175999999999,-1.527501,4,49
-1.388637,-1.982399,1.58975,4,49
-5.0086699999999995,-8.259995,-2.5809490000000004,4,49
-8.044516999999999,-13.522451,-1.92015,4,49
2.418144,-1.527501,19.986795,4,49
-1.647211,-12.26789,0.493206,4,49
-1.944092,-3.3854010000000003,0.536301,4,49
-1.16837,-7.627927000000001,-1.474828,4,49
-5.482722,-10.82658,-3.529053,4,49
-4.654328,-8.90643,-1.235408,4,49
-9.706094,-14.408306,2.073379,4,49
0.114922,-6.574477000000001,-2.513912,4,50
-0.483629,-10.041282,-1.383848,4,50
-0.857124,-7.843405000000001,0.162806,4,50
2.0254950000000003,4.9512089999999995,4.841076,4,50
-3.136404,-10.840945,-0.6033390000000001,4,50
-3.0502130000000003,-6.315904,-4.43885,4,50
-1.115698,-10.381259,-1.067814,4,50
-2.102109,-6.38773,-0.56982,4,50
-3.323152,-18.942924,-6.655881,4,50
-2.695871,-12.124237,-1.11091,4,50
-4.845864,-7.311891999999999,-11.013328,4,50
-1.503559,-8.030152000000001,-1.7046720000000002,4,50
-4.635174,-11.932701,-2.284068,4,50
-13.22557,-26.307487,-17.353174,4,50
-1.58975,-11.013328,-0.296881,4,50
4.486733999999999,-0.732626,-6.885724000000001,4,50
0.177171,-11.190498,-1.80044,4,50
-2.633622,-1.838747,1.891419,4,50
-3.739743,-6.837839999999999,0.90022,4,50
-3.677494,-8.614338,-1.608903,4,50
-1.843535,-14.216769,2.389413,4,50
-15.179238,-13.819332,2.9257150000000003,4,50
-13.326127,-19.958067,-7.747636999999999,4,50
-14.025232999999998,-14.968549,1.4987700000000002,4,50
2.269703,-14.700398000000002,37.737408,4,50
-2.470816,-13.153744,-3.055001,4,50
-9.5385,-10.524911,-13.895947,4,50
-1.067814,-7.350199000000001,0.325611,4,50
-1.690306,-3.3997660000000005,2.705448,4,50
-7.019799000000001,-5.66947,0.057461,4,50
-3.696647,-9.299079,-1.082179,4,51
-9.227253,-13.445837,0.316035,4,51
1.795651,-8.451532,23.467964,4,51
-1.61848,-10.970232,0.761356,4,51
-1.426944,-4.750096,-3.864241,4,51
-3.275268,-7.259219,-1.484405,4,51
1.982399,-10.907983,-0.675165,4,51
-2.418144,-16.251839999999998,5.305551,4,51
-4.592078,-10.879252,-1.158794,4,51
-3.505111,-3.806781,-8.777142999999999,4,51
0.0430959999999999,-14.494497,-4.285621,4,51
-6.540959,-9.993398,-10.271125,4,51
-2.748543,-9.835381,-2.523488,4,51
-1.455675,-3.98874,2.504335,4,51
-6.200982,-7.206547,1.44131,4,51
-8.025364,-10.175357,2.5953150000000003,4,51
-2.8491,-15.318103,-1.934515,4,51
-1.58975,-14.96376,-4.094085,4,51
-6.009446,-10.371682,-7.211335000000001,4,51
-2.944868,-7.920019,0.656011,4,51
-2.4851810000000003,-2.0494369999999997,2.140417,4,51
-3.864241,-7.594407,1.25935,4,51
-6.823475,-11.841722,-2.384625,4,51
0.665588,-5.7700260000000005,-4.520251999999999,4,51
-4.419696,-11.314998,0.483629,4,51
-2.748543,-6.306327,-5.286397,4,51
-2.705448,-7.091625,-0.325611,4,51
-7.484274,-11.03727,-2.394202,4,51
-10.376471,-13.910312,-10.429143,4,51
-0.756568,-10.146626,-2.317587,4,51
4.146757,-13.52724,-4.630386,4,52
5.746084,-12.674904,-15.006856,4,52
-4.453215,-19.40261,-8.839393,4,52
7.326257000000001,-12.751518,6.66067,4,52
-0.842759,-12.368446,-15.275007,4,52
-0.656011,-7.493850999999999,-0.378284,4,52
-2.312799,-1.125275,4.903325,4,52
-4.13718,-6.320692,-4.3239279999999995,4,52
2.394202,-8.259995,1.987187,4,52
3.495535,-24.430432999999997,2.662352,4,52
3.145981,-5.477933,3.821146,4,52
5.013458999999999,-10.381259,-1.422156,4,52
-7.31668,-19.206285,-0.919373,4,52
-16.266207,14.250289000000002,-23.463177,4,52
5.492299,-15.20797,-5.0182459999999995,4,52
-4.936844000000001,-13.838485999999998,-9.404425,4,52
3.078944,-12.981361,-6.588842999999999,4,52
-1.034295,-1.3982139999999998,3.414132,4,52
2.193089,-11.602302,2.413355,4,52
-0.397437,-4.271256,-2.1883,4,52
2.059013,-8.049306,0.244209,4,52
2.1739349999999997,-9.160215,1.197101,4,52
-0.742202,-19.01475,4.496311,4,52
-3.380613,-12.258312,3.950433,4,52
-0.7661439999999999,-27.753586,-19.661184,4,52
4.912902,-13.675679999999998,2.126051,4,52
-4.592078,-14.642938,-15.701175,4,52
5.93762,-14.494497,-4.596867,4,52
1.154005,-14.384364,-6.890511999999999,4,52
0.153229,-10.960655,-0.3926489999999999,4,52
-3.356671,-8.030152000000001,-2.566584,4,53
-9.107543,-12.559982000000002,-2.336741,4,53
-3.696647,-9.299079,-1.082179,4,53
-9.227253,-13.445837,0.316035,4,53
1.795651,-8.451532,23.467964,4,53
-1.61848,-10.970232,0.761356,4,53
-1.426944,-4.750096,-3.864241,4,53
-3.275268,-7.259219,-1.484405,4,53
1.982399,-10.907983,-0.675165,4,53
-2.418144,-16.251839999999998,5.305551,4,53
-4.592078,-10.879252,-1.158794,4,53
-3.505111,-3.806781,-8.777142999999999,4,53
0.0430959999999999,-14.494497,-4.285621,4,53
-6.540959,-9.993398,-10.271125,4,53
-2.748543,-9.835381,-2.523488,4,53
-1.455675,-3.98874,2.504335,4,53
-6.200982,-7.206547,1.44131,4,53
-8.025364,-10.175357,2.5953150000000003,4,53
-2.8491,-15.318103,-1.934515,4,53
-1.58975,-14.96376,-4.094085,4,53
-6.009446,-10.371682,-7.211335000000001,4,53
-2.944868,-7.920019,0.656011,4,53
-2.4851810000000003,-2.0494369999999997,2.140417,4,53
-3.864241,-7.594407,1.25935,4,53
-6.823475,-11.841722,-2.384625,4,53
0.665588,-5.7700260000000005,-4.520251999999999,4,53
-4.419696,-11.314998,0.483629,4,53
-2.748543,-6.306327,-5.286397,4,53
-2.705448,-7.091625,-0.325611,4,53
-7.484274,-11.03727,-2.394202,4,53
-11.798626,11.382035,-2.734178,4,54
5.267244,-14.360422,-4.328717,4,54
4.146757,-13.52724,-4.630386,4,54
5.746084,-12.674904,-15.006856,4,54
-4.453215,-19.40261,-8.839393,4,54
7.326257000000001,-12.751518,6.66067,4,54
-0.842759,-12.368446,-15.275007,4,54
-0.656011,-7.493850999999999,-0.378284,4,54
-2.312799,-1.125275,4.903325,4,54
-4.13718,-6.320692,-4.3239279999999995,4,54
2.394202,-8.259995,1.987187,4,54
3.495535,-24.430432999999997,2.662352,4,54
3.145981,-5.477933,3.821146,4,54
5.013458999999999,-10.381259,-1.422156,4,54
-7.31668,-19.206285,-0.919373,4,54
-16.266207,14.250289000000002,-23.463177,4,54
5.492299,-15.20797,-5.0182459999999995,4,54
-4.936844000000001,-13.838485999999998,-9.404425,4,54
3.078944,-12.981361,-6.588842999999999,4,54
-1.034295,-1.3982139999999998,3.414132,4,54
2.193089,-11.602302,2.413355,4,54
-0.397437,-4.271256,-2.1883,4,54
2.059013,-8.049306,0.244209,4,54
2.1739349999999997,-9.160215,1.197101,4,54
-0.742202,-19.01475,4.496311,4,54
-3.380613,-12.258312,3.950433,4,54
-0.7661439999999999,-27.753586,-19.661184,4,54
4.912902,-13.675679999999998,2.126051,4,54
-4.592078,-14.642938,-15.701175,4,54
5.93762,-14.494497,-4.596867,4,54
-4.592078,-14.642938,-15.701175,4,55
5.93762,-14.494497,-4.596867,4,55
1.154005,-14.384364,-6.890511999999999,4,55
0.153229,-10.960655,-0.3926489999999999,4,55
-3.471592,-1.04866,4.41012,4,55
-2.011129,-6.153098,-1.915361,4,55
0.162806,-8.892064999999999,2.135628,4,55
3.4237089999999997,-23.482329999999997,5.722142,4,55
-1.446098,-12.703634,6.742072,4,55
7.805097999999999,-19.79526,2.542642,4,55
-6.971914999999999,-18.368315,0.263362,4,55
-4.429273,-12.35887,15.05474,4,55
-0.7852979999999999,-14.221559,-7.225700999999999,4,55
-2.5617959999999997,-22.61563,-20.87744,4,55
-0.952892,-12.976573,-2.681506,4,55
-4.074930999999999,-0.713472,4.908114,4,55
-0.909797,-7.010222,-2.5905259999999997,4,55
-0.459687,-0.675165,3.744532,4,55
0.957681,-6.679823,-1.82917,4,55
3.682282,-5.12838,1.73819,4,55
8.221689,-12.555194,-8.662222,4,55
-8.269572,-20.044256,-1.426944,4,55
-10.453085,8.954314,-7.852981,4,55
8.279149,-14.623784,-3.840299,4,55
-1.479617,-8.839393,-4.936844000000001,4,55
4.826711,-15.193604,-4.544194,4,55
0.641646,0.0909799999999999,-7.920019,4,55
5.899312999999999,-11.674128,-1.47004,4,55
2.27928,-5.410896,-11.444284,4,55
2.767697,-8.350976,2.331953,4,55
-0.857124,-7.843405000000001,0.162806,4,56
2.0254950000000003,4.9512089999999995,4.841076,4,56
-3.136404,-10.840945,-0.6033390000000001,4,56
-3.0502130000000003,-6.315904,-4.43885,4,56
-1.115698,-10.381259,-1.067814,4,56
-2.102109,-6.38773,-0.56982,4,56
-3.323152,-18.942924,-6.655881,4,56
-2.695871,-12.124237,-1.11091,4,56
-4.845864,-7.311891999999999,-11.013328,4,56
-1.503559,-8.030152000000001,-1.7046720000000002,4,56
-4.635174,-11.932701,-2.284068,4,56
-13.22557,-26.307487,-17.353174,4,56
-1.58975,-11.013328,-0.296881,4,56
4.486733999999999,-0.732626,-6.885724000000001,4,56
0.177171,-11.190498,-1.80044,4,56
-2.633622,-1.838747,1.891419,4,56
-3.739743,-6.837839999999999,0.90022,4,56
-3.677494,-8.614338,-1.608903,4,56
-1.843535,-14.216769,2.389413,4,56
-15.179238,-13.819332,2.9257150000000003,4,56
-13.326127,-19.958067,-7.747636999999999,4,56
-14.025232999999998,-14.968549,1.4987700000000002,4,56
2.269703,-14.700398000000002,37.737408,4,56
-2.470816,-13.153744,-3.055001,4,56
-9.5385,-10.524911,-13.895947,4,56
-1.067814,-7.350199000000001,0.325611,4,56
-1.690306,-3.3997660000000005,2.705448,4,56
-7.019799000000001,-5.66947,0.057461,4,56
-10.237606,-13.086706,-1.000776,4,56
-5.621585,-12.339716,35.30969,4,56
0.0430959999999999,-14.494497,-4.285621,4,57
-6.540959,-9.993398,-10.271125,4,57
-2.748543,-9.835381,-2.523488,4,57
-1.455675,-3.98874,2.504335,4,57
-6.200982,-7.206547,1.44131,4,57
-8.025364,-10.175357,2.5953150000000003,4,57
-2.8491,-15.318103,-1.934515,4,57
-1.58975,-14.96376,-4.094085,4,57
-6.009446,-10.371682,-7.211335000000001,4,57
-2.944868,-7.920019,0.656011,4,57
-2.4851810000000003,-2.0494369999999997,2.140417,4,57
-3.864241,-7.594407,1.25935,4,57
-6.823475,-11.841722,-2.384625,4,57
0.665588,-5.7700260000000005,-4.520251999999999,4,57
-4.419696,-11.314998,0.483629,4,57
-2.748543,-6.306327,-5.286397,4,57
-2.705448,-7.091625,-0.325611,4,57
-7.484274,-11.03727,-2.394202,4,57
-10.376471,-13.910312,-10.429143,4,57
-0.756568,-10.146626,-2.317587,4,57
-1.345541,-1.714248,2.734178,4,57
-2.183512,-7.690175999999999,-1.527501,4,57
-1.388637,-1.982399,1.58975,4,57
-5.0086699999999995,-8.259995,-2.5809490000000004,4,57
-8.044516999999999,-13.522451,-1.92015,4,57
2.418144,-1.527501,19.986795,4,57
-1.647211,-12.26789,0.493206,4,57
-1.944092,-3.3854010000000003,0.536301,4,57
-1.16837,-7.627927000000001,-1.474828,4,57
-5.482722,-10.82658,-3.529053,4,57
-9.5385,-10.524911,-13.895947,4,58
-1.067814,-7.350199000000001,0.325611,4,58
-1.690306,-3.3997660000000005,2.705448,4,58
-7.019799000000001,-5.66947,0.057461,4,58
-10.237606,-13.086706,-1.000776,4,58
-5.621585,-12.339716,35.30969,4,58
-11.674128,-12.943054,5.712566000000001,4,58
3.414132,-21.930887,0.6991069999999999,4,58
-9.433155,-11.63582,-0.919373,4,58
-9.528923,6.7277070000000005,-13.781025,4,58
-3.3039980000000004,-12.703634,-4.189853,4,58
-11.09473,-15.543157999999998,-12.033257,4,58
-2.288857,-10.13705,-3.792415,4,58
-2.858677,-0.732626,3.20823,4,58
-5.583278,-5.631162000000001,-1.005565,4,58
-1.814805,-10.764331,-2.0302830000000003,4,58
-3.055001,-6.991069,-1.594538,4,58
2.044648,-9.730036,-0.1292869999999999,4,58
-8.475474,-23.769634,-6.938396000000001,4,58
-4.979939,-14.45619,2.207454,4,58
-20.748151999999997,-22.826319,-14.556746,4,58
-4.520251999999999,-12.258312,-3.007117,4,58
-5.865794,-11.506534,-9.821015,4,58
-4.9512089999999995,-7.762002000000001,-2.6862939999999997,4,58
-2.264915,-1.742979,3.916914,4,58
-2.628833,-9.945514,-2.762909,4,58
-2.006341,-1.264138,4.055778,4,58
-3.160346,-6.378153,0.474052,4,58
-1.307234,-9.835381,-1.345541,4,58
-5.075707,-17.894264,-4.036624,4,58
9.701305,-3.0502130000000003,33.92105,4,59
-5.114014,-12.966996,-6.29675,4,59
-9.868899,-17.027563,-18.727446,4,59
-11.051635,-9.974244,-2.011129,4,59
-3.040636,-3.409343,-5.324704,4,59
-1.082179,-13.967772,-1.915361,4,59
-3.715801,-1.891419,2.633622,4,59
-2.389413,-5.956774,1.4987700000000002,4,59
0.234632,-1.685518,4.544194999999999,4,59
-3.797204,-7.757213,1.833959,4,59
-11.48738,-12.923901,-0.177171,4,59
-6.62715,-5.463568,-1.35033,4,59
2.542642,-11.300632,-1.5610190000000002,4,59
-3.112462,-17.587805,-3.773262,4,59
-12.445061,-15.073894,4.146757,4,59
-18.555063,-19.756952,-15.753847,4,59
-1.307234,-12.291832,-2.873042,4,59
-2.882619,-6.253655,-12.090718,4,59
-2.715025,-5.880159,1.058237,4,59
-1.2162540000000002,-1.005565,3.835511,4,59
0.004788,-11.257536,-2.102109,4,59
-2.284068,-0.397437,3.5960910000000004,4,59
-1.101333,-7.642291999999999,1.977611,4,59
1.273715,-7.105989999999999,2.145205,4,59
-5.918466,-5.559336,0.440533,4,59
-10.462662,-12.550406,-0.550666,4,59
-2.619257,-15.021221,18.784906,4,59
-5.228936,-13.115437,2.193089,4,59
-4.261679,-9.916783,-8.777142999999999,4,59
-2.6910830000000003,-10.668563,-2.0302830000000003,4,59
-2.097321,-0.770933,2.983175,4,60
4.668694,-12.62702,4.247314,4,60
-2.60968,-12.53604,-6.62715,4,60
-1.6519990000000002,-10.093954,0.426168,4,60
-3.682282,-2.106897,4.845865,4,60
-1.173159,-5.688623000000001,-1.264138,4,60
7.1395100000000005,-7.077260000000001,1.383849,4,60
7.671023,-13.326127,-9.093178,4,60
-6.430825,-18.890251,-0.54109,4,60
-0.272939,-4.261679,12.401965,4,60
1.3982139999999998,-8.044516999999999,-0.684742,4,60
-2.499546,-15.500062,3.936068,4,60
-4.903325,-14.408306,3.428497,4,60
-2.959233,-27.983427,-3.557784,4,60
5.995081,-12.057199,6.636728,4,60
-4.592078,-23.300371,-25.292345,4,60
0.512359,-7.474697,1.872266,4,60
-2.973598,-1.240196,3.86903,4,60
-3.682282,-5.755661,-2.82037,4,60
-2.37026,-1.063026,4.017469999999999,4,60
2.293645,-7.249642999999999,0.6272810000000001,4,60
9.32781,-7.225700999999999,-0.421379,4,60
8.686164,-22.37621,2.8682540000000003,4,60
-6.358999,-17.0946,2.0781669999999997,4,60
-11.798626,11.382035,-2.734178,4,60
5.267244,-14.360422,-4.328717,4,60
4.146757,-13.52724,-4.630386,4,60
5.746084,-12.674904,-15.006856,4,60
-4.453215,-19.40261,-8.839393,4,60
7.326257000000001,-12.751518,6.66067,4,60
0.445322,-7.924807,1.7525560000000002,4,61
-8.101977999999999,-12.152967,-0.526724,4,61
4.869807,-7.402871,17.913418,4,61
-3.193865,-10.67814,-1.891419,4,61
-8.614338,-26.197355,-5.401319,4,61
-9.581595,-14.542381,6.833052,4,61
-20.676327,-24.808718,-21.265299,4,61
-0.4979939999999999,-12.86644,-1.810016,4,61
-15.251065,-14.135366,-17.06108,4,61
-5.190629,-9.246407,-3.490746,4,61
-1.1300629999999998,-1.719037,3.4332849999999997,4,61
0.086191,-11.161768,-1.393425,4,61
-1.412579,1.249773,5.224149,4,61
-3.3039980000000004,-5.904101,1.264139,4,61
-1.532289,-10.103531,-2.351106,4,61
-9.107543,-26.479871999999997,-7.958326,4,61
-11.046846,-13.594276999999998,4.563349,4,61
-9.998186,-15.322891,-13.986926,4,61
-0.957681,-12.804191,0.8906430000000001,4,61
-2.1739349999999997,-6.004657,-7.61835,4,61
-0.21069,-14.853627,-3.643975,4,61
-13.737929,-13.235147,-12.253524,4,61
-5.185841,-7.445967,-4.486733999999999,4,61
-1.182736,0.301669,3.05979,4,61
-4.007893,-6.392518,-2.015918,4,61
1.838747,-9.916783,0.866701,4,61
0.80924,-12.310986,1.742979,4,61
-13.536817,-15.878345,4.462791999999999,4,61
9.701305,-3.0502130000000003,33.92105,4,61
-5.114014,-12.966996,-6.29675,4,61
-1.58975,-11.013328,-0.296881,4,62
4.486733999999999,-0.732626,-6.885724000000001,4,62
0.177171,-11.190498,-1.80044,4,62
-2.633622,-1.838747,1.891419,4,62
-3.739743,-6.837839999999999,0.90022,4,62
-3.677494,-8.614338,-1.608903,4,62
-1.843535,-14.216769,2.389413,4,62
-15.179238,-13.819332,2.9257150000000003,4,62
-13.326127,-19.958067,-7.747636999999999,4,62
-14.025232999999998,-14.968549,1.4987700000000002,4,62
2.269703,-14.700398000000002,37.737408,4,62
-2.470816,-13.153744,-3.055001,4,62
-9.5385,-10.524911,-13.895947,4,62
-1.067814,-7.350199000000001,0.325611,4,62
-1.690306,-3.3997660000000005,2.705448,4,62
-7.019799000000001,-5.66947,0.057461,4,62
-10.237606,-13.086706,-1.000776,4,62
-5.621585,-12.339716,35.30969,4,62
-11.674128,-12.943054,5.712566000000001,4,62
3.414132,-21.930887,0.6991069999999999,4,62
-9.433155,-11.63582,-0.919373,4,62
-9.528923,6.7277070000000005,-13.781025,4,62
-3.3039980000000004,-12.703634,-4.189853,4,62
-11.09473,-15.543157999999998,-12.033257,4,62
-2.288857,-10.13705,-3.792415,4,62
-2.858677,-0.732626,3.20823,4,62
-5.583278,-5.631162000000001,-1.005565,4,62
-1.814805,-10.764331,-2.0302830000000003,4,62
-3.055001,-6.991069,-1.594538,4,62
2.044648,-9.730036,-0.1292869999999999,4,62
-5.559336,-11.219229,-9.80665,4,63
-1.996764,-8.082824,1.963245,4,63
-1.01993,-3.763685,2.4660279999999997,4,63
-3.332729,-9.524135,-0.134075,4,63
-9.409213,-14.116213,4.127604,4,63
-1.47004,-14.149732,-6.397307,4,63
-8.681376,-13.848063,1.4987700000000002,4,63
-3.912125,-11.013328,-8.748413000000001,4,63
1.043872,-11.48738,-5.913678,4,63
-1.570596,-1.7573439999999998,1.714248,4,63
-4.3766,-6.679823,-1.206678,4,63
-0.7852979999999999,-11.161768,-1.455675,4,63
-8.911219000000001,-11.597513,30.286652,4,63
0.59855,-15.586253,-1.924938,4,63
-11.894394,1.580173,-9.227253,4,63
-4.491522,-13.263878,-2.365471,4,63
-9.069236,-9.787497,-11.022904,4,63
-2.96881,-7.723694999999999,-1.034295,4,63
1.316811,-10.740389,-1.163582,4,63
-5.27682,-26.068068,-2.298433,4,63
-1.278504,-13.565547,-5.190629,4,63
-8.542512,-13.608643,-13.757082999999998,4,63
-4.3239279999999995,-12.828133,-3.816357,4,63
-12.488156,-11.683704,-12.464214,4,63
-3.620033,-8.068458999999999,-1.192312,4,63
1.551443,-8.418014,0.7230489999999999,4,63
-4.707,-16.630125,16.366761999999998,4,63
-0.588974,-15.102624,-3.931279,4,63
-6.569689,-13.445837,-8.944737,4,63
-4.175488,-8.178592,-0.737414,4,63
-2.03986,-9.931149,24.49747,4,64
0.770933,-14.077906,-4.156333999999999,4,64
1.896208,-4.367024,22.835896,4,64
-4.7788260000000005,-15.102624,-3.3854010000000003,4,64
-1.154005,-3.227384,-2.63841,4,64
0.579397,-12.50731,-1.446098,4,64
-2.475604,-0.636858,1.6998830000000005,4,64
-1.47004,-8.264783999999999,1.695095,4,64
-1.996764,-1.628057,3.198654,4,64
-5.482722,-7.934384,-0.052672,4,64
-9.188946,-13.024457,-1.881842,4,64
-9.380483,-0.407014,-17.00841,4,64
-1.010353,-13.809755,-3.926491,4,64
-2.935291,-13.589489000000002,-14.255076999999998,4,64
-1.23062,-14.681245,-3.045424,4,64
-5.214571,-10.342952,-7.52737,4,64
-5.0086699999999995,-7.972691,-2.097321,4,64
-2.75812,-1.805228,1.23062,4,64
-2.236184,-9.749189,-1.719037,4,64
-2.5809490000000004,-9.983821,-1.929727,4,64
-3.730166000000001,-14.508862,8.355765,4,64
-2.566584,-12.583924,-5.583278,4,64
3.174712,-4.903325,-1.388637,4,64
-9.892841,-10.91756,1.015142,4,64
6.737284,-12.650962,4.165911,4,64
0.483629,-15.863979999999998,-2.810793,4,64
-2.576161,-14.283808,-7.249642999999999,4,64
-1.944092,-9.232041,-0.11971,4,64
-0.6608,-2.715025,-2.15957,4,64
-0.555455,-8.178592,-0.641646,4,64
-1.905785,-2.695871,2.1739349999999997,4,65
-5.363012,-9.198523,-0.679953,4,65
0.622492,-6.924030999999999,1.058237,4,65
-0.416591,-11.080365,-2.097321,4,65
-5.525817,-12.612655,-3.0502130000000003,4,65
0.914585,-5.980716,-4.649539,4,65
-0.143652,-9.270349,0.167594,4,65
-0.679953,-3.007117,1.953669,4,65
-4.817133999999999,-8.561666,0.684742,4,65
-9.002198,-11.664551,2.470816,4,65
-1.11091,-17.195156,-3.351882,4,65
-0.3734949999999999,-16.405070000000002,-3.4572269999999996,4,65
-5.559336,-11.219229,-9.80665,4,65
-1.996764,-8.082824,1.963245,4,65
-1.01993,-3.763685,2.4660279999999997,4,65
-3.332729,-9.524135,-0.134075,4,65
-9.409213,-14.116213,4.127604,4,65
-1.47004,-14.149732,-6.397307,4,65
-8.681376,-13.848063,1.4987700000000002,4,65
-3.912125,-11.013328,-8.748413000000001,4,65
1.043872,-11.48738,-5.913678,4,65
-1.570596,-1.7573439999999998,1.714248,4,65
-4.3766,-6.679823,-1.206678,4,65
-0.7852979999999999,-11.161768,-1.455675,4,65
-8.911219000000001,-11.597513,30.286652,4,65
0.59855,-15.586253,-1.924938,4,65
-11.894394,1.580173,-9.227253,4,65
-4.491522,-13.263878,-2.365471,4,65
-9.069236,-9.787497,-11.022904,4,65
-2.96881,-7.723694999999999,-1.034295,4,65
-1.163582,-10.065224,-7.364564,4,66
-0.483629,-6.933608,0.8044520000000001,4,66
-6.378153,-2.5809490000000004,3.912126,4,66
-0.167594,-10.390836,-2.020706,4,66
0.1915359999999999,0.651223,6.042965000000001,4,66
2.226608,-6.837839999999999,0.3304,4,66
3.05979,-8.183380999999999,0.665588,4,66
4.572925,-12.401965,-4.783615,4,66
-8.063671000000001,-21.222204,-4.6878470000000005,4,66
-14.805743,12.124237,-10.888829,4,66
8.968679,-15.370775,-3.4811690000000004,4,66
-0.675165,-14.245501,23.769634,4,66
6.359,-15.466543,-4.764461,4,66
-3.964798000000001,-5.583278,-2.863465,4,66
1.082179,-12.138602,-2.624045,4,66
-3.715801,-0.790087,3.979163,4,66
-0.234632,-6.339846,0.483629,4,66
9.370906,-7.402871,0.411803,4,66
8.379707000000002,-19.718645,1.819593,4,66
0.684742,-3.3375169999999996,4.759673,4,66
5.032612,-9.945514,-7.61835,4,66
-3.801992,-16.069881,-0.7852979999999999,4,66
1.403002,-7.718906,11.190498,4,66
7.034165,-14.686032999999998,-4.721366000000001,4,66
-3.691859,-8.561666,-5.12838,4,66
0.8762780000000001,-11.295844,-3.926491,4,66
-1.570596,-1.551443,5.12838,4,66
3.624822,-10.951078,-6.708553,4,66
-0.158017,-1.647211,1.077391,4,66
2.197877,-8.801085,0.895431,4,66
-3.2800559999999996,-5.8274870000000005,-4.6208089999999995,4,67
2.667141,-12.737153,-1.25935,4,67
-1.8579,-1.9919759999999995,1.671153,4,67
-2.255338,-6.435614,-1.556231,4,67
3.854665,-11.310209,0.287304,4,67
-7.747636999999999,-22.495918,-1.972822,4,67
-5.238512999999999,-15.308526,-0.1292869999999999,4,67
-0.134075,-2.978387,-5.688623000000001,4,67
-7.943961,-14.729129,2.044648,4,67
-5.0374,-14.580688,-8.48984,4,67
2.896984,-13.575124,1.288081,4,67
-2.37026,-2.624045,2.513912,4,67
-1.891419,-8.259995,-0.957681,4,67
3.0693669999999997,-10.0748,-0.3304,4,67
-6.607996000000001,-26.824636,-7.929596000000001,4,67
-1.5466540000000002,-14.676456,-3.5386300000000004,4,67
-3.093309,-19.124884,4.869807,4,67
-5.300762000000001,-11.836933,-2.389413,4,67
1.3982139999999998,-5.281609,-4.908113,4,67
2.116475,-11.980585,-5.214571,4,67
-1.388637,-2.264915,2.748544,4,67
-4.6208089999999995,-6.244078,-2.1547810000000003,4,67
-5.7029879999999995,-11.592725,-2.102109,4,67
-6.722917999999999,5.415684,1.695095,4,67
-3.682282,-13.603854,-2.317587,4,67
-8.63828,4.022259,3.586514,4,67
-4.118027,-14.216769,-3.605668,4,67
-10.275913,-10.769119,-14.432248,4,67
-5.932832,-9.749189,-2.082955,4,67
-1.604115,-2.432509,1.766921,4,67
3.217807,-9.883265,-2.624045,4,68
-3.763685,-12.445061,8.676587,4,68
1.666364,-16.141707999999998,-4.7453080000000005,4,68
-1.7860740000000002,-10.13705,-5.477933,4,68
4.721366000000001,-13.570335,1.240197,4,68
-1.005565,-2.700659,-0.545878,4,68
3.835511,-13.172897,2.097321,4,68
-3.945644,-17.257406,-20.973207,4,68
-0.344765,-9.083601,1.297657,4,68
-2.494758,-1.872266,3.758897,4,68
0.790087,-6.272808,-5.243302,4,68
-2.145205,-11.501745,1.197101,4,68
-1.503559,-9.600749,7.819463000000001,4,68
0.952892,-14.599842,-5.228936,4,68
-5.985504,-15.17445,4.333505000000001,4,68
-7.244853999999999,-18.823214,4.841076,4,68
-0.464475,-9.332599,21.62922,4,68
3.758897,-14.642938,-5.315128,4,68
-0.0478839999999999,-22.888569,-16.845604,4,68
-1.656788,-11.520899,-2.317587,4,68
-1.771709,-0.5171479999999999,3.816358,4,68
2.30801,-6.684611,-0.545878,4,68
4.491523,-4.256891,5.621586,4,68
-2.418144,-7.766789999999999,2.413355,4,68
-3.5625720000000003,-1.264138,5.046977,4,68
2.0494369999999997,-5.60722,-0.751779,4,68
8.37013,-6.794744000000001,-0.306458,4,68
14.714764,-30.085539,-5.980716,4,68
-2.695871,-15.361198000000002,8.753200999999999,4,68
-6.38773,8.221689,8.834603999999999,4,68
7.192182000000001,-25.201366,-16.903064999999998,4,69
1.575385,-10.620679,1.58975,4,69
-0.02873,-5.425261,0.8236049999999999,4,69
3.4189199999999995,-6.675033999999999,1.158794,4,69
1.891419,-11.669339,-1.570596,4,69
-1.647211,-5.305551,9.169792,4,69
3.399767,-15.586253,-0.8044520000000001,4,69
4.572925,0.1819589999999999,32.59945,4,69
5.60722,-13.005303,-0.378284,4,69
3.672706,-10.874464,-7.0581059999999995,4,69
1.939303,-9.097966,-2.782062,4,69
-0.344765,-4.161122,1.23062,4,69
-0.387861,-9.174581,3.031059,4,69
-7.359775999999999,-15.322891,0.8523360000000001,4,69
11.113884,-19.603724,-3.921702,4,69
5.1092260000000005,-15.452178,-1.47004,4,69
6.373365,-11.741165,-8.226476,4,69
3.2896330000000003,-9.993398,-0.3830719999999999,4,69
-2.978387,-3.0502130000000003,1.273715,4,69
-4.3478699999999995,-9.92636,-1.642422,4,69
-4.256891,-17.166426,-2.054225,4,69
-12.277467,6.435614,2.853889,4,69
-7.8865,-16.82645,4.912902,4,69
4.13718,-23.673866,-10.807426,4,69
2.523489,-10.070012,0.158017,4,69
-0.143652,-3.5721489999999996,1.862689,4,69
1.221043,-7.963114,-0.737414,4,69
6.105214,-8.504205,0.306458,4,69
-2.925714,-21.298819,5.612009,4,69
3.347094,-13.302185,-2.020706,4,69
-0.387861,-9.174581,3.031059,4,70
-7.359775999999999,-15.322891,0.8523360000000001,4,70
11.113884,-19.603724,-3.921702,4,70
5.1092260000000005,-15.452178,-1.47004,4,70
6.373365,-11.741165,-8.226476,4,70
3.2896330000000003,-9.993398,-0.3830719999999999,4,70
-2.978387,-3.0502130000000003,1.273715,4,70
-4.3478699999999995,-9.92636,-1.642422,4,70
-4.256891,-17.166426,-2.054225,4,70
-12.277467,6.435614,2.853889,4,70
-7.8865,-16.82645,4.912902,4,70
4.13718,-23.673866,-10.807426,4,70
2.523489,-10.070012,0.158017,4,70
-0.143652,-3.5721489999999996,1.862689,4,70
1.221043,-7.963114,-0.737414,4,70
6.105214,-8.504205,0.306458,4,70
-2.925714,-21.298819,5.612009,4,70
3.347094,-13.302185,-2.020706,4,70
-4.170699,-15.801731,0.162806,4,70
1.173159,-14.092270999999998,-0.636858,4,70
1.11091,-8.954314,-8.887277000000001,4,70
0.0478839999999999,-8.571242,0.790087,4,70
2.494758,-5.674258,1.034295,4,70
11.894394,-11.429919,-8.049306,4,70
-9.323022,-15.844827,1.824382,4,70
-1.278504,-17.334020000000002,-14.245501,4,70
5.042189,-14.518439,-5.63595,4,70
-0.474052,-10.237606,-9.222465,4,70
2.873042,-10.261548,0.4979939999999999,4,70
-2.911349,-3.782838,1.13964,4,70
-2.695871,-15.361198000000002,8.753200999999999,4,71
-6.38773,8.221689,8.834603999999999,4,71
4.850653,-16.845604,-6.435614,4,71
-0.7852979999999999,-9.227253,-10.625467,4,71
-1.043872,-14.264654,-3.600879,4,71
2.94008,3.691859,20.398598,4,71
4.721366000000001,-14.528016,-4.256891,4,71
-0.6464340000000001,-7.177817,-3.667917,4,71
5.511451999999999,-11.611878,-7.335833999999999,4,71
-1.527501,-1.125275,4.276045,4,71
2.011129,-8.504205,1.982399,4,71
2.351106,-3.964798000000001,4.036624,4,71
-0.205901,-6.119579,0.814029,4,71
-3.830723,-0.924162,5.12838,4,71
0.019154,-5.233725,-2.7198130000000003,4,71
5.4970870000000005,-6.358999,2.149993,4,71
7.182606,-22.596476000000003,1.2545620000000002,4,71
-6.05733,-16.529567999999998,2.7437549999999997,4,71
-4.462791999999999,11.176133,14.00608,4,71
1.393425,-13.579912,-4.328717,4,71
-1.441309,-8.815451,-2.834735,4,71
-6.349423000000001,-15.978902,5.4396260000000005,4,71
-4.180276,1.776498,1.345541,4,71
-1.072602,-11.793838,-10.414778,4,71
0.905008,-1.101333,-1.264138,4,71
5.0086699999999995,-13.239935999999998,3.452439,4,71
-1.163582,-10.065224,-7.364564,4,71
-0.483629,-6.933608,0.8044520000000001,4,71
-6.378153,-2.5809490000000004,3.912126,4,71
-0.167594,-10.390836,-2.020706,4,71
-4.2904089999999995,-9.121908,-2.552219,4,72
-3.720589,-3.2896330000000003,-1.077391,4,72
-6.919242999999999,-7.129933,1.221043,4,72
-8.643068,-9.006986999999999,1.623269,4,72
-17.439365,-13.426683,-21.1408,4,72
-1.7094599999999998,-11.496957,-1.23062,4,72
-0.253785,-2.365471,1.278504,4,72
-3.691859,-7.723694999999999,-0.459687,4,72
-10.668563,-11.228806,-1.7860740000000002,4,72
-6.813898,-8.269572,-2.365471,4,72
-7.838616,-9.011775,-3.648763,4,72
-1.479617,-6.071695,-9.390059,4,72
-2.619257,-8.767567,-2.2505490000000004,4,72
-2.4660279999999997,-3.155558,0.545878,4,72
-7.64708,-6.655881,-0.770933,4,72
-7.790732000000001,-11.257536,-4.529829,4,72
-0.78051,-6.009446,-11.377247,4,72
-2.853888,-10.860099,-5.137956,4,72
-5.061342,-7.967903,-8.298302,4,72
-3.639186,-8.030152000000001,1.450886,4,72
-3.691859,-5.094861,-1.80044,4,72
-6.258443,-8.585608,-1.000776,4,72
-6.426037,-13.819332,-3.371036,4,72
-3.567361,-5.233725,-7.666233999999999,4,72
-7.201759,-7.479486,-2.197877,4,72
-2.753332,-4.486733999999999,0.167594,4,72
-4.3478699999999995,-10.170568,1.733402,4,72
-6.229712999999999,-9.380483,-2.255338,4,72
3.39019,9.725247,21.859062,4,72
-3.921702,-11.631032,-0.59855,4,72
-3.758896,-7.661445,-0.751779,4,73
-0.339977,-4.309563,0.670377,4,73
-3.05979,-9.074024,-1.235408,4,73
-1.364695,-4.170699,2.164359,4,73
-5.3390699999999995,-6.981492,2.3558950000000003,4,73
-4.352658,-14.42746,-2.5809490000000004,4,73
-10.836157,-15.80652,-6.885724000000001,4,73
-3.811569,-15.246277,-3.438074,4,73
-8.441956,-15.097836,-20.025103,4,73
-1.034295,-8.331821000000001,-1.063026,4,73
-10.46745,-15.68681,-15.251065,4,73
-3.624821,-7.158663000000001,-0.02873,4,73
-2.331952,-3.2321720000000003,1.766921,4,73
-6.29675,-7.594407,1.302446,4,73
-9.433155,-13.369223000000002,0.924162,4,73
10.457873,13.895947,27.241226,4,73
-2.916138,-12.330139,-1.173159,4,73
-4.802768,-9.979033,-9.634268,4,73
-0.143652,-13.512875,-0.732626,4,73
-3.323152,-6.933608,-8.307879,4,73
-0.924162,-8.820239,1.058237,4,73
1.292869,-8.207322999999999,1.192313,4,73
2.063802,-15.040375,-2.8682540000000003,4,73
-8.724471000000001,-11.195287,0.593762,4,73
-5.449203,-11.918336,-8.078036,4,73
0.42138,-12.196063,-3.825934,4,73
0.588974,-5.707777,-5.78918,4,73
-1.244985,-11.295844,-1.675941,4,73
-3.466804,-2.293645,2.375048,4,73
-4.726154,-7.982268,-1.47004,4,73
-3.701436,-10.309433,-0.1819589999999999,4,74
-4.185065,-19.804836,-7.910442,4,74
0.306458,-14.135366,-4.501099,4,74
-3.960008999999999,-14.748282,-15.184027,4,74
-5.655104,-7.800309,-2.72939,4,74
-2.394202,0.009577,2.892196,4,74
-6.483498,-7.374141000000001,0.110133,4,74
-10.596737,-13.484144,-1.182736,4,74
-12.157756,4.903325,-5.90889,4,74
-12.162544,-14.121001,0.871489,4,74
-13.723564,-26.187778,-15.049952,4,74
-3.126827,-11.382035,-1.613692,4,74
-3.035848,-6.550535,-5.377377,4,74
-1.2162540000000002,-8.125919999999999,1.565808,4,74
1.010353,-7.225700999999999,2.542642,4,74
-6.598419,-6.210559,0.8236049999999999,4,74
-13.532028,-14.571112,-0.555455,4,74
-2.652775,-1.608903,12.512098,4,74
-7.982268,-12.138602,-0.732626,4,74
0.512359,-8.437167,24.17186,4,74
-1.355118,-14.245501,-2.494758,4,74
-3.184288,-4.975151,-3.816357,4,74
-0.368707,-10.386047,-0.651223,4,74
-2.0781669999999997,-0.531513,2.39899,4,74
-4.941632,-7.551311999999999,-1.149217,4,74
-7.714117999999999,-11.654974,-0.742202,4,74
-4.975151,-21.538239,-7.354987,4,74
3.308787,-9.069236,0.1292869999999999,4,74
-0.378284,-9.797073,-0.234632,4,74
-13.393165,-13.397953,-0.531513,4,74
-3.916914,-6.244078,0.052672,4,75
-1.4987700000000002,-9.591172,0.675165,4,75
-2.930503,-13.273454999999998,22.902932999999997,4,75
-4.1419690000000005,-9.92636,-1.197101,4,75
-6.7851669999999995,-18.229452,-10.601525,4,75
-1.929727,-14.767435999999998,-3.476381,4,75
-0.54109,-4.477157,-6.981492,4,75
0.507571,-12.593501,-1.374272,4,75
-4.711789,-1.977611,2.470816,4,75
-1.244985,-7.383717999999999,-0.158017,4,75
-2.1739349999999997,-10.783484,-0.014365,4,75
-2.336741,-7.465121000000001,-0.531513,4,75
-3.701436,-10.309433,-0.1819589999999999,4,75
-4.185065,-19.804836,-7.910442,4,75
0.306458,-14.135366,-4.501099,4,75
-3.960008999999999,-14.748282,-15.184027,4,75
-5.655104,-7.800309,-2.72939,4,75
-2.394202,0.009577,2.892196,4,75
-6.483498,-7.374141000000001,0.110133,4,75
-10.596737,-13.484144,-1.182736,4,75
-12.157756,4.903325,-5.90889,4,75
-12.162544,-14.121001,0.871489,4,75
-13.723564,-26.187778,-15.049952,4,75
-3.126827,-11.382035,-1.613692,4,75
-3.035848,-6.550535,-5.377377,4,75
-1.2162540000000002,-8.125919999999999,1.565808,4,75
1.010353,-7.225700999999999,2.542642,4,75
-6.598419,-6.210559,0.8236049999999999,4,75
-13.532028,-14.571112,-0.555455,4,75
-2.652775,-1.608903,12.512098,4,75
-13.651738,-13.321339000000002,2.39899,4,76
-11.137826,-13.158532,-12.105083,4,76
-5.420472,-10.544065,-5.181051999999999,4,76
-3.169923,-0.234632,3.452439,4,76
-4.654328,-8.350976,-0.962469,4,76
-14.748282,-12.77546,1.474828,4,76
2.978387,9.92636,15.102624,4,76
-8.231264999999999,-10.371682,-2.978387,4,76
-3.845088,-3.4955339999999997,-7.302314999999999,4,76
-4.601655,-7.675811,-0.68953,4,76
-4.218583,-3.519476,-0.976834,4,76
-5.195418,-8.882488,0.622492,4,76
-7.441178999999999,-12.11466,-3.950433,4,76
-4.903325,-5.51624,-7.489063000000001,4,76
-3.892972,-7.388506,2.375048,4,76
-2.992752,-3.323152,-0.967257,4,76
-7.393294999999999,-5.315128,-1.221043,4,76
-0.416591,-10.232818,-2.106897,4,76
-3.691859,-8.240842,1.053449,4,76
-3.835511,-14.800954999999998,-2.379836,4,76
-4.333505000000001,-8.935161,-12.41633,4,76
-4.3239279999999995,-8.571242,0.354342,4,76
-2.164358,-4.10845,-0.7852979999999999,4,76
-5.66947,-6.646304,-1.714248,4,76
-8.657434,-9.002198,-3.2561139999999997,4,76
-0.426168,-5.161899,-5.061342,4,76
-5.080496,-7.867347,0.746991,4,76
-3.29921,-3.3758239999999997,1.953669,4,76
-4.2904089999999995,-9.121908,-2.552219,4,76
-3.720589,-3.2896330000000003,-1.077391,4,76
-1.388637,-11.540052,-2.451662,4,77
6.378154,-20.025103,-19.982008,4,77
-3.821146,-8.973467999999999,-1.465251,4,77
-3.112462,-3.3614589999999995,2.092532,4,77
-3.667917,-7.460332000000001,-0.6272810000000001,4,77
-4.43885,-12.406754,-1.742979,4,77
-1.790863,0.416591,20.944477,4,77
-0.512359,-9.404425,-2.097321,4,77
-4.309563,-23.376986,-9.457097,4,77
-2.212242,-14.690822,-4.0270470000000005,4,77
-0.435745,-7.230489,-4.572925,4,77
0.775721,-10.97502,-1.781286,4,77
-3.0693669999999997,-2.418144,1.192313,4,77
-1.072602,-8.288725999999999,-1.106121,4,77
-0.8762780000000001,-10.448297,-2.044648,4,77
-3.260903,-15.073894,5.382166000000001,4,77
-1.465251,-12.741941,-2.853888,4,77
-1.106121,-8.858546,-6.445191,4,77
-0.742202,-15.524004,-3.77805,4,77
1.010353,-14.911088,-8.317456,4,77
-1.9919759999999995,-9.342175,-2.7437549999999997,4,77
-2.2601259999999996,-2.796427,0.426168,4,77
-6.028599,-6.947972999999999,-1.268927,4,77
-11.247959,-12.526464,3.246538,4,77
-8.264783999999999,-18.401834,-5.57849,4,77
-0.5841850000000001,-10.94629,-1.015141,4,77
-2.944868,-3.763685,0.8475469999999999,4,77
-1.675941,-9.136273,-2.839523,4,77
-3.773262,-4.094085,-0.531513,4,77
-6.17704,-7.345411,0.363919,4,77
-6.545747,-17.161638,-16.94616,4,78
-0.574608,-8.336611,1.771709,4,78
1.733402,-4.012682,1.762132,4,78
2.75812,-8.27436,0.7038949999999999,4,78
-3.960008999999999,-13.809755,-1.312023,4,78
0.416591,-10.500969,-6.8426279999999995,4,78
4.563349,-10.342952,-4.716577,4,78
-1.862689,-3.141193,2.011129,4,78
1.733402,-10.491392,-1.211466,4,78
-0.411803,-3.1986529999999997,2.059013,4,78
-5.391742,-8.853758000000001,-0.3926489999999999,4,78
-5.674258,-16.4338,1.661576,4,78
1.072602,-20.84871,0.234632,4,78
2.284068,-11.271901,-0.742202,4,78
-2.1883,-4.855441000000001,1.604115,4,78
2.379837,-7.905653999999999,-1.01993,4,78
0.158017,-3.758896,1.9919759999999995,4,78
-3.490746,-9.471462,-1.197101,4,78
-2.365471,-16.371551999999998,-0.972046,4,78
-4.659116,5.78918,24.344242,4,78
0.038307,-12.023681,-1.13964,4,78
-0.866701,-7.551311999999999,-10.0748,4,78
-1.388637,-7.905653999999999,-0.416591,4,78
3.825935,-6.833050999999999,-0.114922,4,78
-0.871489,-7.0581059999999995,-2.27928,4,78
4.0270470000000005,-7.766789999999999,0.143652,4,78
5.736508000000001,-12.440272,-3.1076740000000003,4,78
-2.533065,-13.962984,-3.323152,4,78
-1.331176,-10.591949,-6.598419,4,78
4.094085,-10.400413,-2.389413,4,78
-2.767697,-15.911864,6.272809,4,79
2.226608,-30.717607,15.907076000000002,4,79
3.763685,-13.570335,-0.493206,4,79
-10.261548,-27.064056,-23.171083,4,79
-3.3997660000000005,-5.147533,-2.987964,4,79
-0.2585739999999999,-4.91769,4.161122,4,79
0.612916,-13.254301000000002,-4.912902,4,79
-1.905785,-3.797204,3.845088,4,79
1.723825,-6.938396000000001,-0.02873,4,79
-9.562442,-23.444023,-1.053449,4,79
-7.599196000000001,6.143522,-3.3614589999999995,4,79
7.479486,-14.829685,-2.384625,4,79
4.505888,-16.874334,-10.941502,4,79
-0.335188,-8.719683,-0.272939,4,79
-2.954445,-2.681506,3.323152,4,79
0.057461,-8.968679,0.943315,4,79
-1.383848,-3.519476,4.462791999999999,4,79
2.786851,-10.237606,-9.380483,4,79
-7.575253999999999,-19.34515,-1.728614,4,79
-5.3725879999999995,5.985504,-10.060435,4,79
1.80044,-14.015656,-3.744531,4,79
-6.924030999999999,-8.5473,-8.025364,4,79
-0.234632,-12.119449,-2.930503,4,79
-4.127603,-11.324574,-9.524135,4,79
1.091756,-10.577583,5.621586,4,79
-4.515464,-0.325611,3.806781,4,79
-1.939303,-6.823475,-4.127603,4,79
0.646435,-9.902418,-0.7038949999999999,4,79
-0.670376,-20.470425,-3.4189199999999995,4,79
4.343082,-16.515203,-5.425261,4,79
1.072602,-20.84871,0.234632,4,80
2.284068,-11.271901,-0.742202,4,80
-2.1883,-4.855441000000001,1.604115,4,80
2.379837,-7.905653999999999,-1.01993,4,80
0.158017,-3.758896,1.9919759999999995,4,80
-3.490746,-9.471462,-1.197101,4,80
-2.365471,-16.371551999999998,-0.972046,4,80
-4.659116,5.78918,24.344242,4,80
0.038307,-12.023681,-1.13964,4,80
-0.866701,-7.551311999999999,-10.0748,4,80
-1.388637,-7.905653999999999,-0.416591,4,80
3.825935,-6.833050999999999,-0.114922,4,80
-0.871489,-7.0581059999999995,-2.27928,4,80
4.0270470000000005,-7.766789999999999,0.143652,4,80
5.736508000000001,-12.440272,-3.1076740000000003,4,80
-2.533065,-13.962984,-3.323152,4,80
-1.331176,-10.591949,-6.598419,4,80
4.094085,-10.400413,-2.389413,4,80
-1.446098,-3.438074,2.628834,4,80
0.713472,-8.39886,-1.312023,4,80
-0.0239419999999999,-2.949656,2.782062,4,80
-3.203442,-9.615114,-2.475604,4,80
-3.782838,-15.974113,-2.633622,4,80
-15.112201,-2.0302830000000003,-25.94357,4,80
-0.967257,-13.326127,-1.771709,4,80
-4.563348,-10.649409,-10.122684,4,80
-0.430956,-7.800309,1.355118,4,80
0.78051,-3.20823,1.881843,4,80
0.0909799999999999,-7.709328999999999,1.939303,4,80
3.687071,-6.339846,1.4987700000000002,4,80
-3.0693669999999997,-2.418144,1.192313,4,81
-1.072602,-8.288725999999999,-1.106121,4,81
-0.8762780000000001,-10.448297,-2.044648,4,81
-3.260903,-15.073894,5.382166000000001,4,81
-1.465251,-12.741941,-2.853888,4,81
-1.106121,-8.858546,-6.445191,4,81
-0.742202,-15.524004,-3.77805,4,81
1.010353,-14.911088,-8.317456,4,81
-1.9919759999999995,-9.342175,-2.7437549999999997,4,81
-2.2601259999999996,-2.796427,0.426168,4,81
-6.028599,-6.947972999999999,-1.268927,4,81
-11.247959,-12.526464,3.246538,4,81
-8.264783999999999,-18.401834,-5.57849,4,81
-0.5841850000000001,-10.94629,-1.015141,4,81
-2.944868,-3.763685,0.8475469999999999,4,81
-1.675941,-9.136273,-2.839523,4,81
-3.773262,-4.094085,-0.531513,4,81
-6.17704,-7.345411,0.363919,4,81
-10.611102,-14.12579,5.161899,4,81
-5.889736,-11.75553,1.244985,4,81
0.871489,-11.597513,-1.5610190000000002,4,81
-3.3758239999999997,-2.451662,0.790087,4,81
-5.755661,-7.790732000000001,-0.593762,4,81
-13.445837,-14.240712,6.761226,4,81
-10.19451,-20.590134,-14.705187,4,81
-10.788273,-14.092270999999998,5.070919,4,81
-2.351106,-7.972691,-2.762909,4,81
0.866701,-11.913548,-3.356671,4,81
-2.983175,-3.859453,0.177171,4,81
-4.6208089999999995,-7.905653999999999,-0.009577,4,81
1.091756,-10.577583,5.621586,4,82
-4.515464,-0.325611,3.806781,4,82
-1.939303,-6.823475,-4.127603,4,82
0.646435,-9.902418,-0.7038949999999999,4,82
-0.670376,-20.470425,-3.4189199999999995,4,82
4.343082,-16.515203,-5.425261,4,82
3.787627,0.641646,-6.488286,4,82
-0.694318,-16.055517000000002,-3.782838,4,82
-2.389413,-13.9151,-11.070788,4,82
5.276821,-11.688493,-10.261548,4,82
2.786851,-4.390966000000001,-6.981492,4,82
3.466804,-7.196969999999999,-1.024718,4,82
2.140417,-6.708553,2.70066,4,82
8.566454,-18.7466,-3.892972,4,82
-3.1076740000000003,-15.184027,6.0333879999999995,4,82
1.455675,-10.429143,-1.637634,4,82
1.513135,-12.26789,6.200983,4,82
-3.2321720000000003,-2.557007,31.052795,4,82
2.0254950000000003,-13.508086,-5.597643,4,82
-2.03986,-24.267628,-24.856602,4,82
0.320823,-7.704541000000001,-0.277727,4,82
-1.374272,-3.5769370000000005,5.171476,4,82
2.39899,-10.376471,-2.1787229999999997,4,82
-3.0502130000000003,-1.968034,4.41012,4,82
-3.605668,-6.110002,-1.7573439999999998,4,82
1.771709,-9.974244,0.986411,4,82
5.750873,-19.982008,-0.770933,4,82
-3.533841,-16.395493,-3.3375169999999996,4,82
-1.719037,-7.345411,-4.673482,4,82
1.723825,-13.431472,0.80924,4,82
4.505888,-16.874334,-10.941502,4,83
-0.335188,-8.719683,-0.272939,4,83
-2.954445,-2.681506,3.323152,4,83
0.057461,-8.968679,0.943315,4,83
-1.383848,-3.519476,4.462791999999999,4,83
2.786851,-10.237606,-9.380483,4,83
-7.575253999999999,-19.34515,-1.728614,4,83
-5.3725879999999995,5.985504,-10.060435,4,83
1.80044,-14.015656,-3.744531,4,83
-6.924030999999999,-8.5473,-8.025364,4,83
-0.234632,-12.119449,-2.930503,4,83
-4.127603,-11.324574,-9.524135,4,83
1.091756,-10.577583,5.621586,4,83
-4.515464,-0.325611,3.806781,4,83
-1.939303,-6.823475,-4.127603,4,83
0.646435,-9.902418,-0.7038949999999999,4,83
-0.670376,-20.470425,-3.4189199999999995,4,83
4.343082,-16.515203,-5.425261,4,83
3.787627,0.641646,-6.488286,4,83
-0.694318,-16.055517000000002,-3.782838,4,83
-2.389413,-13.9151,-11.070788,4,83
5.276821,-11.688493,-10.261548,4,83
2.786851,-4.390966000000001,-6.981492,4,83
3.466804,-7.196969999999999,-1.024718,4,83
2.140417,-6.708553,2.70066,4,83
8.566454,-18.7466,-3.892972,4,83
-3.1076740000000003,-15.184027,6.0333879999999995,4,83
1.455675,-10.429143,-1.637634,4,83
1.513135,-12.26789,6.200983,4,83
-3.2321720000000003,-2.557007,31.052795,4,83
0.411803,-13.800179,-2.753332,4,84
0.8044520000000001,-19.876663,-16.802507000000002,4,84
-0.531513,-11.453861,-0.761356,4,84
-4.510676,-2.72939,4.999093,4,84
-1.335964,-5.363012,-4.103661,4,84
0.435745,-11.075577,-1.872266,4,84
-6.430825,-13.651738,9.198523,4,84
4.955998,-8.738836000000001,-0.35913,4,84
2.011129,-21.796812,5.157111,4,84
-2.284068,-15.552734,6.861782000000001,4,84
-6.397307,-21.274876000000003,6.397307,4,84
3.557784,-13.244724,-5.075707,4,84
-1.264138,-19.019539,-19.88145,4,84
-1.331176,-5.78918,1.6519990000000002,4,84
-3.002329,-2.911349,3.332729,4,84
-2.700659,-7.852981,1.647211,4,84
-3.801992,-1.714248,3.749319999999999,4,84
-0.536301,-6.172251999999999,0.6608,4,84
4.774039,-11.152191,-2.020706,4,84
-1.733402,7.862559,3.265691,4,84
1.134852,-9.844957,0.067038,4,84
-3.093309,-1.331176,2.877831,4,84
2.346318,-8.140285,-4.750096,4,84
0.2585739999999999,-14.413095000000002,-1.383848,4,84
0.35913,-9.337387,-1.82917,4,84
1.422156,-9.983821,-0.742202,4,84
-8.868122999999999,-16.448166,8.331822,4,84
-2.5953150000000003,-15.605407,-4.0845080000000005,4,84
-0.622492,-5.530606,-6.698975999999999,4,84
5.492299,-11.353305,2.365471,4,84
-6.339846,-14.437037,0.756568,4,85
-5.06613,-20.140024,-7.987056,4,85
-3.801992,-11.659762,5.090073,4,85
-6.947972999999999,-16.668432,-12.847286,4,85
-0.459687,-11.812991,-1.4987700000000002,4,85
-1.762132,-7.666233999999999,-5.904101,4,85
-0.814029,-8.480263,-0.244209,4,85
-0.268151,-4.070143,2.710236,4,85
1.221043,-12.698846,-1.206678,4,85
-4.582502,-10.654198,-0.8283940000000001,4,85
-2.509123,-4.333505000000001,-8.006210000000001,4,85
-2.375048,-7.340622,-0.895431,4,85
-1.192312,-4.309563,1.580173,4,85
-4.232949,-9.481039,0.727837,4,85
-6.789956,-12.454638,1.503559,4,85
1.010353,-7.862558,-6.50744,4,85
1.632846,-11.295844,-4.43885,4,85
-2.576161,-2.959233,1.465252,4,85
-0.7230489999999999,-10.395624,-1.671153,4,85
-6.325481,-13.876793,-2.94008,4,85
-2.39899,-9.763555,-1.479617,4,85
-5.990292,-13.704411,2.0254950000000003,4,85
-4.9512089999999995,-19.34036,-20.058622,4,85
-0.8379709999999999,-11.45865,1.000776,4,85
-1.637634,-5.4970870000000005,-5.7029879999999995,4,85
-0.679953,-8.202534,1.039084,4,85
1.886631,-6.9096660000000005,0.842759,4,85
3.3614589999999995,-12.334928,-2.0254950000000003,4,85
4.161122,-10.208876,0.962469,4,85
4.711789,-14.96376,6.66067,4,85
-6.675033999999999,-11.420342,31.636982,4,86
-2.418144,-14.178462,-2.987964,4,86
-9.605537,-5.688623000000001,-5.099648999999999,4,86
-2.944868,-12.564771,-2.169147,4,86
-19.49359,-14.154520000000002,-12.832921,4,86
-3.907337,-7.139508999999999,-2.236184,4,86
-0.632069,-4.692635,0.976834,4,86
-5.468356,-9.093178,0.7182609999999999,4,86
-10.644621,-13.589489000000002,2.15957,4,86
-12.11466,-16.812084,-7.086836999999999,4,86
-1.264138,-15.126566,-2.983175,4,86
-2.116474,-8.772355000000001,-7.230489,4,86
-3.409343,-7.666233999999999,-0.397437,4,86
-0.90022,-2.796427,2.341529,4,86
-5.190629,-10.625467,-0.45011,4,86
-9.734824,-13.991714000000002,2.676718,4,86
-4.960786,-10.529699,-3.940856,4,86
2.710236,-12.708423,-0.857124,4,86
-1.6807299999999998,-10.754754,-9.466674,4,86
-3.284845,-7.517792999999999,-0.220267,4,86
-2.327164,-3.3039980000000004,1.56102,4,86
-3.835511,-9.600749,0.943315,4,86
-6.560111999999999,-15.083470000000002,-1.359906,4,86
-1.383848,-8.480263,32.312145,4,86
-2.786851,-12.694057,0.1915359999999999,4,86
-13.421895,-11.247959,-15.5671,4,86
1.6807299999999998,-12.26789,1.23062,4,86
-2.542642,-3.064578,1.881843,4,86
-5.21936,-8.571242,-0.976834,4,86
-9.509769,-16.52478,4.477157,4,86
-8.068458999999999,-14.762648,-9.653421,4,87
2.116475,-12.50731,-1.513135,4,87
-0.641646,-2.700659,2.020706,4,87
-0.004788,-6.9096660000000005,-0.713472,4,87
-0.148441,-11.238382,-0.052672,4,87
-4.999093,-15.088259,6.363788,4,87
-4.726154,-11.003751,-3.682282,4,87
-2.671929,5.755661,9.552865,4,87
-2.7437549999999997,-11.903971,1.005565,4,87
-2.418144,-3.782838,-0.651223,4,87
-3.677494,-6.890511999999999,-1.7860740000000002,4,87
-0.545878,-10.237606,-2.126051,4,87
-6.675033999999999,-11.420342,31.636982,4,87
-2.418144,-14.178462,-2.987964,4,87
-9.605537,-5.688623000000001,-5.099648999999999,4,87
-2.944868,-12.564771,-2.169147,4,87
-19.49359,-14.154520000000002,-12.832921,4,87
-3.907337,-7.139508999999999,-2.236184,4,87
-0.632069,-4.692635,0.976834,4,87
-5.468356,-9.093178,0.7182609999999999,4,87
-10.644621,-13.589489000000002,2.15957,4,87
-12.11466,-16.812084,-7.086836999999999,4,87
-1.264138,-15.126566,-2.983175,4,87
-2.116474,-8.772355000000001,-7.230489,4,87
-3.409343,-7.666233999999999,-0.397437,4,87
-0.90022,-2.796427,2.341529,4,87
-5.190629,-10.625467,-0.45011,4,87
-9.734824,-13.991714000000002,2.676718,4,87
-4.960786,-10.529699,-3.940856,4,87
2.710236,-12.708423,-0.857124,4,87
-1.192312,-4.309563,1.580173,4,88
-4.232949,-9.481039,0.727837,4,88
-6.789956,-12.454638,1.503559,4,88
1.010353,-7.862558,-6.50744,4,88
1.632846,-11.295844,-4.43885,4,88
-2.576161,-2.959233,1.465252,4,88
-0.7230489999999999,-10.395624,-1.671153,4,88
-6.325481,-13.876793,-2.94008,4,88
-2.39899,-9.763555,-1.479617,4,88
-5.990292,-13.704411,2.0254950000000003,4,88
-4.9512089999999995,-19.34036,-20.058622,4,88
-0.8379709999999999,-11.45865,1.000776,4,88
-1.637634,-5.4970870000000005,-5.7029879999999995,4,88
-0.679953,-8.202534,1.039084,4,88
1.886631,-6.9096660000000005,0.842759,4,88
3.3614589999999995,-12.334928,-2.0254950000000003,4,88
4.161122,-10.208876,0.962469,4,88
4.711789,-14.96376,6.66067,4,88
0.80924,-15.897499,-1.666364,4,88
-3.356671,-13.153744,-12.804191,4,88
1.426944,-5.262455,-0.651223,4,88
-0.263362,-6.019023000000001,1.235408,4,88
-4.352658,-9.32781,0.713472,4,88
-3.955221,-16.49605,3.438074,4,88
-2.705448,-7.436389999999999,1.383849,4,88
-4.577713,-17.645266,1.944092,4,88
7.192182000000001,-25.201366,-16.903064999999998,4,88
1.575385,-10.620679,1.58975,4,88
-0.02873,-5.425261,0.8236049999999999,4,88
3.4189199999999995,-6.675033999999999,1.158794,4,88
2.255338,-4.788403,2.710236,4,89
7.824250999999999,-16.376339,-3.65834,4,89
-3.921702,-18.947712,5.966351,4,89
0.981623,-8.935161,-1.762132,4,89
-0.90022,-16.060305,5.224149,4,89
15.169662,-11.453861,38.426937,4,89
6.042965000000001,-11.836933,0.6033390000000001,4,89
-4.960786,-15.935806,-19.07221,4,89
0.0909799999999999,-6.574477000000001,0.067038,4,89
0.670377,-3.007117,3.332729,4,89
-1.441309,-8.959103,1.086968,4,89
-1.719037,-2.801216,3.3039980000000004,4,89
-0.957681,-7.843405000000001,1.833959,4,89
-3.29921,-14.465767,-1.316811,4,89
-7.005433999999999,3.8403,4.070143,4,89
9.184157,-15.14572,-2.145205,4,89
-0.148441,-14.709975,-9.093178,4,89
1.067814,-9.77792,-1.115698,4,89
-3.2896330000000003,-0.124498,4.76925,4,89
2.154782,-13.196839,-7.738060000000001,4,89
-2.901772,-1.383848,4.726155,4,89
0.952892,-8.523358,0.071826,4,89
9.294291,-7.747636999999999,0.316035,4,89
6.2153480000000005,-17.21431,1.82917,4,89
-3.371036,-14.159308,4.625598,4,89
6.114791,-32.996887,-21.188684,4,89
0.732626,-12.215217,0.909797,4,89
-6.833050999999999,11.482592,3.639187,4,89
0.411803,-13.800179,-2.753332,4,89
0.8044520000000001,-19.876663,-16.802507000000002,4,89
2.106898,-9.619903,1.939303,4,90
-1.848324,-6.363788,-0.612916,4,90
2.782062,-10.644621,1.158794,4,90
3.241749,-14.010868,-3.4955339999999997,4,90
-9.184157,-11.104307,0.138864,4,90
0.019154,-1.000776,-7.522581,4,90
3.39019,-10.984597,-5.195418,4,90
-1.881842,-2.102109,3.308787,4,90
-0.986411,-8.020575,-0.8379709999999999,4,90
-1.790863,-1.58975,2.624045,4,90
-3.423708,-6.8426279999999995,-1.872266,4,90
-3.351882,-11.233594,-1.206678,4,90
-4.548983,-16.189592,12.35887,4,90
-4.367024,-15.35641,-1.474828,4,90
-0.679953,-7.139508999999999,-6.900089,4,90
5.76045,-13.503298,-3.4428620000000003,4,90
-1.7525560000000002,-1.7477669999999998,1.82917,4,90
3.375825,-12.41633,-4.3239279999999995,4,90
-1.7860740000000002,-1.331176,3.505111,4,90
-1.197101,-8.044516999999999,0.335188,4,90
3.0214830000000004,-7.675811,1.201889,4,90
-2.365471,-7.220911999999999,1.187524,4,90
-9.428367,-13.694834,2.710236,4,90
-10.199299,-19.479225,-7.800309,4,90
-3.5721489999999996,-10.840945,-2.600103,4,90
-0.962469,8.777142999999999,7.498639999999999,4,90
-10.812215,-19.843143,-1.225831,4,90
-15.102624,-27.284322999999997,-22.67788,4,90
3.993528,-12.028469,1.283292,4,90
-1.235408,-2.111686,2.3606830000000003,4,90
-3.5721489999999996,-10.840945,-2.600103,4,91
-0.962469,8.777142999999999,7.498639999999999,4,91
-10.812215,-19.843143,-1.225831,4,91
-15.102624,-27.284322999999997,-22.67788,4,91
3.993528,-12.028469,1.283292,4,91
-1.235408,-2.111686,2.3606830000000003,4,91
-1.517924,-6.588842999999999,-1.934515,4,91
3.236961,-9.083601,-0.651223,4,91
-0.306458,-21.064186,-5.27682,4,91
1.221043,-10.94629,-1.374272,4,91
-1.982399,-18.646044,3.72059,4,91
0.8619129999999999,-15.413871,-3.701436,4,91
-3.3375169999999996,-6.569689,-5.4300489999999995,4,91
-4.237737,-7.589619,-2.4851810000000003,4,91
-1.455675,-2.829946,2.552219,4,91
-3.955221,-7.264008,0.742203,4,91
-10.026917,-15.107412,3.591303,4,91
0.110133,-17.401058,-6.4068830000000005,4,91
-3.2321720000000003,-17.448942000000002,-2.5905259999999997,4,91
-1.383848,-4.194641000000001,-5.583278,4,91
-3.275268,-10.070012,-2.164358,4,91
-1.388637,-2.298433,1.857901,4,91
-6.133945,-8.504205,-1.61848,4,91
-10.357317,-13.675679999999998,0.943315,4,91
-15.02601,-28.773515999999997,-33.94978,4,91
-9.988609,-13.417107,5.061342,4,91
-9.423578,-13.239935999999998,-8.911219000000001,4,91
2.245761,-12.689269,-2.504335,4,91
-1.733402,-1.3982139999999998,2.442086,4,91
0.349553,-7.958326,-1.015141,4,91
-2.240973,-2.111686,1.728614,4,92
-6.430825,-7.608772999999999,1.403002,4,92
-0.622492,-2.614468,2.762909,4,92
-5.894524,-8.925583999999999,-1.814805,4,92
-11.889606,-15.021221,4.548983,4,92
-19.962854,-27.552473,-9.174581,4,92
-1.436521,-12.785037,0.272939,4,92
-4.055777,-6.995857000000001,-10.673351,4,92
-3.62961,-6.856992999999999,-1.2162540000000002,4,92
-2.2313959999999997,-10.304645,-3.888183,4,92
-4.31914,-9.289502,-1.158794,4,92
-10.036493,-12.291832,4.003105000000001,4,92
-8.068458999999999,-14.762648,-9.653421,4,92
2.116475,-12.50731,-1.513135,4,92
-0.641646,-2.700659,2.020706,4,92
-0.004788,-6.9096660000000005,-0.713472,4,92
-0.148441,-11.238382,-0.052672,4,92
-4.999093,-15.088259,6.363788,4,92
-4.726154,-11.003751,-3.682282,4,92
-2.671929,5.755661,9.552865,4,92
-2.7437549999999997,-11.903971,1.005565,4,92
-2.418144,-3.782838,-0.651223,4,92
-3.677494,-6.890511999999999,-1.7860740000000002,4,92
-0.545878,-10.237606,-2.126051,4,92
-6.675033999999999,-11.420342,31.636982,4,92
-2.418144,-14.178462,-2.987964,4,92
-9.605537,-5.688623000000001,-5.099648999999999,4,92
-2.944868,-12.564771,-2.169147,4,92
-19.49359,-14.154520000000002,-12.832921,4,92
-3.907337,-7.139508999999999,-2.236184,4,92
-1.733402,-1.3982139999999998,2.442086,4,93
0.349553,-7.958326,-1.015141,4,93
-0.421379,-10.97502,0.545878,4,93
-4.055777,-18.464083,1.953669,4,93
1.106121,-13.872005,-3.921702,4,93
-8.058882,8.834603999999999,-20.499157,4,93
-3.29921,-14.762648,-2.494758,4,93
-12.641385,-16.026787,-18.248606,4,93
-2.901772,-7.144297999999999,1.063026,4,93
-1.5466540000000002,-4.046201,2.571373,4,93
-5.329493,-7.580042,1.776498,4,93
-9.595961,-15.279796,-0.272939,4,93
-7.991845,-13.43626,13.254301000000002,4,93
-9.332599,-12.397177,4.395755,4,93
-6.952761,-11.918336,-5.731719,4,93
2.111686,-13.761871,-0.919373,4,93
-1.345541,-0.895431,3.591303,4,93
0.435745,-10.548853,-1.403002,4,93
-7.125144000000001,-13.737929,-2.557007,4,93
-1.623269,8.140286,9.835381,4,93
-5.12838,-11.951855,-1.953669,4,93
-9.811439,-22.132,-13.053187,4,93
-1.412579,-11.271901,-0.426168,4,93
-1.551443,-3.078943,-1.063026,4,93
0.3304,-7.809886,-0.933739,4,93
1.580173,-10.448297,-0.287304,4,93
-2.164358,-19.077,-3.643975,4,93
0.282516,-15.500062,-3.864241,4,93
-0.8619129999999999,-6.866569999999999,-3.811569,4,93
-3.0693669999999997,-14.523228,-2.27928,4,93
2.25055,-6.952761,1.628057,4,94
-0.919373,-6.617572999999999,0.775721,4,94
-12.976573,-14.283808,6.306328,4,94
-2.777274,-7.029375999999999,0.612916,4,94
-11.300632,-12.646173,-2.164358,4,94
1.594538,-9.289502,19.685127,4,94
-0.742202,-13.953407,-0.8044520000000001,4,94
-17.51598,-14.374787,-16.965311,4,94
-4.386177,-9.212888,-5.157109999999999,4,94
-1.833958,-1.249773,3.399767,4,94
-4.955997,-5.837064,-0.143652,4,94
1.599327,-11.042058,-1.383848,4,94
-2.60968,-18.066647,-7.034164,4,94
1.5466540000000002,-7.249642999999999,1.719037,4,94
-0.981623,-10.711658,2.245761,4,94
-13.953407,-16.64449,4.553772,4,94
-5.137956,3.366248,-1.316811,4,94
-1.781286,-14.72434,-3.921702,4,94
-8.322244,-15.035586,-17.142485,4,94
3.749319999999999,-11.592725,0.134075,4,94
-1.01993,-0.59855,0.924162,4,94
-1.340753,-8.283937,1.173159,4,94
0.339977,-2.916138,3.428497,4,94
-2.863465,-8.676587,0.45011,4,94
-9.212888,-12.258312,-0.756568,4,94
-1.120486,4.151546,-10.984597,4,94
-7.168239999999999,-11.69807,-2.346318,4,94
0.1819589999999999,-0.593762,34.261024,4,94
-2.274491,-13.005303,-3.5625720000000003,4,94
-6.919242999999999,-9.653421,-4.271256,4,94
-0.866701,-16.481684,-2.657564,4,95
-3.615245,-10.050858,-5.875371,4,95
-4.218583,-9.198523,-2.06859,4,95
-1.005565,-3.462016,2.020706,4,95
-3.122039,-8.528147,-1.805228,4,95
-1.206678,-3.174711,2.03986,4,95
-4.122815,-8.911219000000001,-1.517924,4,95
-8.528147,-12.081141,-0.272939,4,95
-6.028599,-1.163582,1.905785,4,95
-2.710236,-14.719551999999998,-2.571372,4,95
-16.462529999999997,-15.404294,-22.965183,4,95
-1.833958,-7.833828,3.394978,4,95
-1.532289,-3.969586,1.580173,4,95
-2.710236,-7.292738000000001,2.169147,4,95
-1.244985,-4.098873,1.221043,4,95
-5.640739,-8.049306,0.885855,4,95
-8.8777,-13.637373,-0.0430959999999999,4,95
-9.404425,-12.540829,-4.7788260000000005,4,95
-5.152322,-11.664551,-0.11971,4,95
-2.753332,-6.291962,-5.746084,4,95
-1.039083,-7.517792999999999,2.427721,4,95
-2.60968,-5.894524,-6.445191,4,95
-2.533065,-7.378928999999999,0.981623,4,95
0.967258,-6.8761470000000005,1.637634,4,95
-2.959233,-8.700529,-2.245761,4,95
-6.584053999999999,-11.971008,-0.8906430000000001,4,95
-2.1883,-9.404425,-7.675811,4,95
3.117251,-11.267113,-1.053449,4,95
-0.7852979999999999,-1.173159,2.226608,4,95
-7.139508999999999,-7.85777,-3.974375,4,95
4.941633,-15.897499,23.367409,4,96
0.086191,-14.302960999999998,-3.519476,4,96
-6.0333879999999995,-10.907983,-9.830592,4,96
-2.456451,-15.820885,-2.954445,4,96
-3.380613,-7.608772999999999,-4.405330999999999,4,96
-4.343082,-7.522581,-2.528277,4,96
-1.201889,-3.581726,2.959233,4,96
-4.534618,-8.571242,0.057461,4,96
-7.354987,-12.646173,-1.005565,4,96
-9.605537,-11.865664,-9.581595,4,96
-1.096544,-11.640609,-0.751779,4,96
-1.924938,-7.28795,-3.792415,4,96
-4.869806,-7.704541000000001,-0.665588,4,96
-1.331176,-3.3279400000000003,1.484405,4,96
-5.195418,-8.652645,0.948104,4,96
-5.487509999999999,-10.400413,2.60968,4,96
-5.717354,-7.680599000000001,-5.90889,4,96
0.440533,-12.220005,-4.927267,4,96
-2.576161,-3.217807,1.374272,4,96
-4.501099,-7.987056,-1.584961,4,96
-1.40779,-4.893748,1.206678,4,96
-7.029375999999999,-7.723694999999999,-0.287304,4,96
-6.023811,-10.070012,0.3926489999999999,4,96
-7.570465,-12.009315,-5.84664,4,96
0.656011,-11.736377,-2.542642,4,96
-1.719037,-2.930503,2.389413,4,96
-3.600879,-8.681376,-2.1883,4,96
-2.39899,-3.567361,1.790863,4,96
-6.976703,-7.814674,0.857124,4,96
-5.722142,-13.804967,4.845865,4,96
-3.811569,-6.722917999999999,-1.637634,4,97
-0.464475,-10.721235,-0.895431,4,97
-5.8274870000000005,-13.512875,3.447651,4,97
-3.509899,-17.070657999999998,-1.934515,4,97
-4.434061,-6.004657,-3.543418,4,97
0.354342,-12.789825,-1.053449,4,97
-3.3279400000000003,-0.435745,3.093309,4,97
2.149993,-13.388376,-2.37026,4,97
-2.504335,-1.072602,1.024718,4,97
-2.777274,-7.244853999999999,-0.397437,4,97
-0.8044520000000001,-6.196194,2.547431,4,97
-1.244985,-12.339716,1.881843,4,97
-12.89517,-13.129802,5.564125,4,97
-10.611102,-22.874203,-14.049175,4,97
-2.317587,-10.955867,-1.489193,4,97
-2.245761,-7.0245869999999995,-7.177817,4,97
-0.47884,-12.162544,-1.484405,4,97
-0.215478,-1.326388,0.617704,4,97
-1.537077,-8.461109,0.1005559999999999,4,97
2.121263,-8.48984,1.283292,4,97
-4.122815,-7.728483,1.5466540000000002,4,97
-11.439496,-15.030798,6.354212,4,97
-9.208099,-20.561403,3.979163,4,97
-4.3478699999999995,-12.320562,-3.4811690000000004,4,97
1.977611,-1.580173,15.801731,4,97
-4.520251999999999,-12.330139,-3.77805,4,97
-4.692635,-10.630256,-15.691598,4,97
-3.864241,-7.690175999999999,-1.94888,4,97
-0.59855,-0.632069,3.864242,4,97
-3.5529949999999997,-7.062895,-0.287304,4,97
-1.47004,-3.39019,2.1787240000000003,4,98
-5.3821650000000005,-8.542512,1.647211,4,98
-4.505887,-12.856863,5.568912999999999,4,98
-8.858546,-13.220781,-9.064447,4,98
1.728614,-13.359646,0.842759,4,98
-1.537077,-2.327164,1.393425,4,98
-1.307234,-8.303091,-2.63841,4,98
-3.323152,-9.849746,-1.61848,4,98
-2.0494369999999997,-8.082824,-2.6910830000000003,4,98
-1.934515,-11.789049,1.063026,4,98
2.60968,-12.583924,1.953669,4,98
-2.954445,-15.538369,-3.347094,4,98
-3.169923,-8.686164,-6.880935000000001,4,98
2.3558950000000003,-13.431472,0.622492,4,98
-1.599327,-1.537077,2.4660279999999997,4,98
-3.371036,-8.724471000000001,-0.737414,4,98
-7.398083,-13.077129,-1.541866,4,98
-5.39653,-9.093178,-0.033519,4,98
-4.582502,-14.00608,0.866701,4,98
-9.873688,-13.512875,-13.302185,4,98
-3.936067,-12.339716,-1.058237,4,98
-1.733402,-5.492298,-5.228936,4,98
-2.925714,-7.062895,0.110133,4,98
0.220267,-9.337387,3.5194769999999997,4,98
2.48997,-22.471977,-3.806781,4,98
-3.4428620000000003,-12.129025,-1.177947,4,98
-14.973337,-6.234501,-11.702858,4,98
-2.7724849999999996,-13.929465,-0.6464340000000001,4,98
-12.430696,-9.524135,-12.808979,4,98
-4.118027,-8.030152000000001,-0.775721,4,98
-4.218583,-9.198523,-2.06859,4,99
-1.005565,-3.462016,2.020706,4,99
-3.122039,-8.528147,-1.805228,4,99
-1.206678,-3.174711,2.03986,4,99
-4.122815,-8.911219000000001,-1.517924,4,99
-8.528147,-12.081141,-0.272939,4,99
-6.028599,-1.163582,1.905785,4,99
-2.710236,-14.719551999999998,-2.571372,4,99
-16.462529999999997,-15.404294,-22.965183,4,99
-1.833958,-7.833828,3.394978,4,99
-1.532289,-3.969586,1.580173,4,99
-2.710236,-7.292738000000001,2.169147,4,99
-1.244985,-4.098873,1.221043,4,99
-5.640739,-8.049306,0.885855,4,99
-8.8777,-13.637373,-0.0430959999999999,4,99
-9.404425,-12.540829,-4.7788260000000005,4,99
-5.152322,-11.664551,-0.11971,4,99
-2.753332,-6.291962,-5.746084,4,99
-1.039083,-7.517792999999999,2.427721,4,99
-2.60968,-5.894524,-6.445191,4,99
-2.533065,-7.378928999999999,0.981623,4,99
0.967258,-6.8761470000000005,1.637634,4,99
-2.959233,-8.700529,-2.245761,4,99
-6.584053999999999,-11.971008,-0.8906430000000001,4,99
-2.1883,-9.404425,-7.675811,4,99
3.117251,-11.267113,-1.053449,4,99
-0.7852979999999999,-1.173159,2.226608,4,99
-7.139508999999999,-7.85777,-3.974375,4,99
-1.47004,-3.39019,2.1787240000000003,4,99
-5.3821650000000005,-8.542512,1.647211,4,99
-6.880935000000001,-12.3876,-11.453861,4,100
-6.435614,-7.551311999999999,-3.136404,4,100
-0.857124,-3.2561139999999997,2.006341,4,100
-4.118027,-9.174581,-0.670376,4,100
-8.350976,-14.920665,-1.182736,4,100
3.634398000000001,7.613562,24.109612,4,100
-4.352658,-12.550406,-1.489193,4,100
-9.514558,-10.247183,-9.11712,4,100
-3.744531,-8.437167,0.167594,4,100
-2.614468,-2.652775,3.897761,4,100
-1.321599,-8.729258999999999,-1.522712,4,100
-4.707,-10.563218,-1.762132,4,100
4.941633,-15.897499,23.367409,4,100
0.086191,-14.302960999999998,-3.519476,4,100
-6.0333879999999995,-10.907983,-9.830592,4,100
-2.456451,-15.820885,-2.954445,4,100
-3.380613,-7.608772999999999,-4.405330999999999,4,100
-4.343082,-7.522581,-2.528277,4,100
-1.201889,-3.581726,2.959233,4,100
-4.534618,-8.571242,0.057461,4,100
-7.354987,-12.646173,-1.005565,4,100
-9.605537,-11.865664,-9.581595,4,100
-1.096544,-11.640609,-0.751779,4,100
-1.924938,-7.28795,-3.792415,4,100
-4.869806,-7.704541000000001,-0.665588,4,100
-1.331176,-3.3279400000000003,1.484405,4,100
-5.195418,-8.652645,0.948104,4,100
-5.487509999999999,-10.400413,2.60968,4,100
-5.717354,-7.680599000000001,-5.90889,4,100
0.440533,-12.220005,-4.927267,4,100
-1.23062,-14.681245,-3.045424,4,101
-5.214571,-10.342952,-7.52737,4,101
-5.0086699999999995,-7.972691,-2.097321,4,101
-2.75812,-1.805228,1.23062,4,101
-2.236184,-9.749189,-1.719037,4,101
-2.5809490000000004,-9.983821,-1.929727,4,101
-3.730166000000001,-14.508862,8.355765,4,101
-2.566584,-12.583924,-5.583278,4,101
3.174712,-4.903325,-1.388637,4,101
-9.892841,-10.91756,1.015142,4,101
6.737284,-12.650962,4.165911,4,101
0.483629,-15.863979999999998,-2.810793,4,101
-2.576161,-14.283808,-7.249642999999999,4,101
-1.944092,-9.232041,-0.11971,4,101
-0.6608,-2.715025,-2.15957,4,101
-0.555455,-8.178592,-0.641646,4,101
-4.754884,-11.453861,-0.6464340000000001,4,101
-6.047753,-7.402871,10.022128,4,101
-5.7029879999999995,-12.052411,-1.1300629999999998,4,101
1.82917,-10.266336,18.698715,4,101
-1.11091,-15.275007,-2.102109,4,101
-5.056554,-11.473015,-12.607866,4,101
1.082179,-9.940725,-0.316035,4,101
-2.432509,-1.288081,3.203442,4,101
